subject,trial_index,trialIndex,sentence,image,trialType,isMatch,rt_sent,rt_img,hit,list,time_elapsed,correct_response,response
0zhjr0hs,6,104,"<div style=""font-size: 30px;"">There was a deck in the boardgame.</div>","<img src=""Images/church.jpg""/>",filler,,1327,769,true,list_2,62626,n,n
0zhjr0hs,9,29,"<div style=""font-size: 30px;"">There was paint in the drawing.</div>","<img src=""Images/paintstroke.jpg""/>",experimental,y,1018,625,true,list_2,65041,y,y
0zhjr0hs,12,57,"<div style=""font-size: 30px;"">There was chicken in the oven.</div>","<img src=""Images/chickenoven.jpg""/>",experimental,y,844,782,true,list_2,67436,y,y
0zhjr0hs,15,6,"<div style=""font-size: 30px;"">There was a book on the shelf.</div>","<img src=""Images/bookdown.jpg""/>",experimental,n,754,690,true,list_2,69640,y,y
0zhjr0hs,18,67,"<div style=""font-size: 30px;"">There was a hill in the village.</div>","<img src=""Images/scissors.jpg""/>",filler,,484,508,true,list_2,71397,n,n
0zhjr0hs,21,99,"<div style=""font-size: 30px;"">There was a plug by the door.</div>","<img src=""Images/bat.jpg""/>",filler,,424,504,true,list_2,73099,n,n
0zhjr0hs,24,87,"<div style=""font-size: 30px;"">There was a blueberry in the cereal.</div>","<img src=""Images/cushion.jpg""/>",filler,,484,545,true,list_2,74894,n,n
0zhjr0hs,27,48,"<div style=""font-size: 30px;"">There was ketchup on the table.</div>","<img src=""Images/ketchupbottle.jpg""/>",experimental,y,387,530,true,list_2,76587,y,y
0zhjr0hs,30,76,"<div style=""font-size: 30px;"">There was a kayak in the river.</div>","<img src=""Images/lamppost.jpg""/>",filler,,586,542,true,list_2,78492,n,n
0zhjr0hs,33,22,"<div style=""font-size: 30px;"">There was a hose on the lawn.</div>","<img src=""Images/hoselawn.jpg""/>",experimental,y,381,1002,true,list_2,80640,y,y
0zhjr0hs,36,108,"<div style=""font-size: 30px;"">There was a cap on the head.</div>","<img src=""Images/car.jpg""/>",filler,,504,507,true,list_2,82415,n,n
0zhjr0hs,39,21,"<div style=""font-size: 30px;"">There was a lime in the Corona bottle.</div>","<img src=""Images/limewedge.jpg""/>",experimental,y,365,452,true,list_2,84002,y,y
0zhjr0hs,42,96,"<div style=""font-size: 30px;"">There was a bicycle in the driveway.</div>","<img src=""Images/acorn.jpg""/>",filler,,532,522,true,list_2,85821,n,n
0zhjr0hs,45,24,"<div style=""font-size: 30px;"">There was a scarf on the floor.</div>","<img src=""Images/scarf.jpg""/>",experimental,y,430,1248,false,list_2,88258,y,n
0zhjr0hs,48,102,"<div style=""font-size: 30px;"">There was a cork in the bottle.</div>","<img src=""Images/clock.jpg""/>",filler,,429,612,true,list_2,90070,n,n
0zhjr0hs,51,70,"<div style=""font-size: 30px;"">There was a yard by the kindergarten.</div>","<img src=""Images/penguin.jpg""/>",filler,,254,595,true,list_2,91687,n,n
0zhjr0hs,54,64,"<div style=""font-size: 30px;"">There was a battery in the phone.</div>","<img src=""Images/screw.jpg""/>",filler,,451,538,true,list_2,93446,n,n
0zhjr0hs,57,83,"<div style=""font-size: 30px;"">There was a thumbtack on the board.</div>","<img src=""Images/mango.jpg""/>",filler,,313,821,true,list_2,95357,n,n
0zhjr0hs,60,30,"<div style=""font-size: 30px;"">There was a tissue in the trashcan.</div>","<img src=""Images/tissuecrumpled.jpg""/>",experimental,y,398,478,true,list_2,96999,y,y
0zhjr0hs,63,35,"<div style=""font-size: 30px;"">There was fish in the oven.</div>","<img src=""Images/fish.jpg""/>",experimental,n,517,467,true,list_2,98756,y,y
0zhjr0hs,66,97,"<div style=""font-size: 30px;"">There was a pyramid by the museum.</div>","<img src=""Images/couch.jpg""/>",filler,,501,429,true,list_2,100459,n,n
0zhjr0hs,69,120,"<div style=""font-size: 30px;"">There was a cottage in the valley.</div>","<img src=""Images/candy.jpg""/>",filler,,262,468,true,list_2,101959,n,n
0zhjr0hs,72,98,"<div style=""font-size: 30px;"">There was milk in the jar.</div>","<img src=""Images/strawberry.jpg""/>",filler,,312,447,true,list_2,103490,n,n
0zhjr0hs,75,107,"<div style=""font-size: 30px;"">There was a mouse in the trap.</div>","<img src=""Images/wateringcan.jpg""/>",filler,,310,989,true,list_2,105571,n,n
0zhjr0hs,78,43,"<div style=""font-size: 30px;"">There was bread in the toaster.</div>","<img src=""Images/breadloaf.jpg""/>",experimental,n,283,586,true,list_2,107203,y,y
0zhjr0hs,81,91,"<div style=""font-size: 30px;"">There was football in the stadium.</div>","<img src=""Images/apartment.jpg""/>",filler,,305,427,true,list_2,108705,n,n
0zhjr0hs,84,15,"<div style=""font-size: 30px;"">There was an umbrella in her backpack.</div>","<img src=""Images/umbrellahand.jpg""/>",experimental,n,267,547,true,list_2,110292,y,y
0zhjr0hs,87,110,"<div style=""font-size: 30px;"">There was a kettle in the kitchen.</div>","<img src=""Images/measuringtape.jpg""/>",filler,,274,550,true,list_2,111894,n,n
0zhjr0hs,90,37,"<div style=""font-size: 30px;"">There was tinfoil in the garbage.</div>","<img src=""Images/foil.jpg""/>",experimental,n,300,603,true,list_2,113565,y,y
0zhjr0hs,93,92,"<div style=""font-size: 30px;"">There was a wrench in the toolbox.</div>","<img src=""Images/tambourine.jpg""/>",filler,,317,767,true,list_2,115417,n,n
0zhjr0hs,96,14,"<div style=""font-size: 30px;"">There was a zodiac in the ocean.</div>","<img src=""Images/zodiacdeflated.jpg""/>",experimental,n,547,529,false,list_2,117260,y,n
0zhjr0hs,99,88,"<div style=""font-size: 30px;"">There was a pot on the stove.</div>","<img src=""Images/rose.jpg""/>",filler,,396,1282,true,list_2,119700,n,n
0zhjr0hs,102,1,"<div style=""font-size: 30px;"">There was corn in the field.</div>","<img src=""Images/cornpieces.jpg""/>",experimental,n,354,562,true,list_2,121373,y,y
0zhjr0hs,105,17,"<div style=""font-size: 30px;"">There was a walnut on the brownie.</div>","<img src=""Images/walnutpiece.jpg""/>",experimental,y,317,1044,true,list_2,123507,y,y
0zhjr0hs,108,66,"<div style=""font-size: 30px;"">There was a pen in her satchel.</div>","<img src=""Images/dice.jpg""/>",filler,,254,497,true,list_2,125023,n,n
0zhjr0hs,111,52,"<div style=""font-size: 30px;"">There was a map on the wall.</div>","<img src=""Images/mapwall.jpg""/>",experimental,y,293,590,true,list_2,126674,y,y
0zhjr0hs,114,33,"<div style=""font-size: 30px;"">There was spaghetti in the bowl.</div>","<img src=""Images/spaghettibox.jpg""/>",experimental,n,337,624,false,list_2,128396,y,n
0zhjr0hs,117,38,"<div style=""font-size: 30px;"">There was carrot in the curry.</div>","<img src=""Images/carrot.jpg""/>",experimental,n,336,600,true,list_2,130097,y,y
0zhjr0hs,120,105,"<div style=""font-size: 30px;"">There was a whistle in the gym.</div>","<img src=""Images/safetypin.jpg""/>",filler,,348,519,true,list_2,131737,n,n
0zhjr0hs,123,94,"<div style=""font-size: 30px;"">There was chimney on the roof.</div>","<img src=""Images/fountain.jpg""/>",filler,,443,503,true,list_2,133444,n,n
0zhjr0hs,126,95,"<div style=""font-size: 30px;"">There was a mug on the coaster.</div>","<img src=""Images/grater.jpg""/>",filler,,306,519,true,list_2,135037,n,n
0zhjr0hs,129,42,"<div style=""font-size: 30px;"">There was cucumber in the salad.</div>","<img src=""Images/cucumbersliced.jpg""/>",experimental,n,257,615,true,list_2,136671,y,y
0zhjr0hs,132,63,"<div style=""font-size: 30px;"">There was a tree on the trail.</div>","<img src=""Images/mussel.jpg""/>",filler,,301,664,true,list_2,138398,n,n
0zhjr0hs,135,119,"<div style=""font-size: 30px;"">There was a guitar on the stage.</div>","<img src=""Images/candle.jpg""/>",filler,,288,442,true,list_2,139886,n,n
0zhjr0hs,138,10,"<div style=""font-size: 30px;"">There was a mushroom in the forest.</div>","<img src=""Images/mushroomsliced.jpg""/>",experimental,n,286,603,true,list_2,141536,y,y
0zhjr0hs,141,117,"<div style=""font-size: 30px;"">There was a pitcher in the bar.</div>","<img src=""Images/spraycan.jpg""/>",filler,,258,595,true,list_2,143166,n,n
0zhjr0hs,144,39,"<div style=""font-size: 30px;"">There was banana on the pancake.</div>","<img src=""Images/banana.jpg""/>",experimental,n,306,582,true,list_2,144813,y,y
0zhjr0hs,147,51,"<div style=""font-size: 30px;"">There was wool in the sweater.</div>","<img src=""Images/woolknit.jpg""/>",experimental,y,283,641,true,list_2,146509,y,y
0zhjr0hs,150,103,"<div style=""font-size: 30px;"">There was a flower in the vase.</div>","<img src=""Images/squeegee.jpg""/>",filler,,273,548,true,list_2,148090,n,n
0zhjr0hs,153,77,"<div style=""font-size: 30px;"">There was a lipstick in the purse.</div>","<img src=""Images/castle.jpg""/>",filler,,278,839,true,list_2,149969,n,n
0zhjr0hs,156,13,"<div style=""font-size: 30px;"">There was a staple in the machine.</div>","<img src=""Images/staplepaper.jpg""/>",experimental,n,486,756,true,list_2,151982,y,y
0zhjr0hs,159,47,"<div style=""font-size: 30px;"">There was a horse in the stable.</div>","<img src=""Images/horse.jpg""/>",experimental,y,276,488,false,list_2,153526,y,n
0zhjr0hs,162,54,"<div style=""font-size: 30px;"">There was wheat in the mill.</div>","<img src=""Images/wheatpieces.jpg""/>",experimental,y,555,818,false,list_2,155655,y,n
0zhjr0hs,165,36,"<div style=""font-size: 30px;"">There was an airplane in the sky.</div>","<img src=""Images/airplanewheels.jpg""/>",experimental,n,416,417,true,list_2,157268,y,y
0zhjr0hs,168,41,"<div style=""font-size: 30px;"">There was tape on the package.</div>","<img src=""Images/taperoll.jpg""/>",experimental,n,271,482,true,list_2,158792,y,y
0zhjr0hs,171,46,"<div style=""font-size: 30px;"">There was a newspaper on the driveway.</div>","<img src=""Images/newspaper.jpg""/>",experimental,y,232,458,true,list_2,160256,y,y
0zhjr0hs,174,78,"<div style=""font-size: 30px;"">There was fire on campus.</div>","<img src=""Images/papaya.jpg""/>",filler,,214,489,true,list_2,161727,n,n
0zhjr0hs,177,12,"<div style=""font-size: 30px;"">There was a shirt on the hanger.</div>","<img src=""Images/shirtfolded.jpg""/>",experimental,n,118,456,true,list_2,163072,y,y
0zhjr0hs,180,75,"<div style=""font-size: 30px;"">There was a statue in the park.</div>","<img src=""Images/button.jpg""/>",filler,,248,783,true,list_2,164858,n,n
0zhjr0hs,183,2,"<div style=""font-size: 30px;"">There was apple pie on the table.</div>","<img src=""Images/applepieslice.jpg""/>",experimental,n,264,392,true,list_2,166280,y,y
0zhjr0hs,186,109,"<div style=""font-size: 30px;"">There was a chessboard in the classroom.</div>","<img src=""Images/bridge.jpg""/>",filler,,410,450,true,list_2,167901,n,n
0zhjr0hs,189,7,"<div style=""font-size: 30px;"">There was a lamp on the floor.</div>","<img src=""Images/lamptable.jpg""/>",experimental,n,368,565,true,list_2,169592,y,y
0zhjr0hs,192,100,"<div style=""font-size: 30px;"">There was a carriage on the highway.</div>","<img src=""Images/orange.jpg""/>",filler,,277,384,true,list_2,171020,n,n
0zhjr0hs,195,25,"<div style=""font-size: 30px;"">There was a pumpkin on the porch.</div>","<img src=""Images/pumpkinface.jpg""/>",experimental,y,473,459,false,list_2,172714,y,n
0zhjr0hs,198,23,"<div style=""font-size: 30px;"">There was a hockey player on the bench.</div>","<img src=""Images/hockeyplayerbench.jpg""/>",experimental,y,214,451,true,list_2,174149,y,y
0zhjr0hs,201,40,"<div style=""font-size: 30px;"">There was a goose in the sky.</div>","<img src=""Images/gooseland.jpg""/>",experimental,n,338,434,true,list_2,175693,y,y
0zhjr0hs,204,69,"<div style=""font-size: 30px;"">There was a bush in the meadow.</div>","<img src=""Images/hairpin.jpg""/>",filler,,226,445,true,list_2,177129,n,n
0zhjr0hs,207,53,"<div style=""font-size: 30px;"">There was onion in the batter.</div>","<img src=""Images/onionslice.jpg""/>",experimental,y,238,597,true,list_2,178737,y,y
0zhjr0hs,210,26,"<div style=""font-size: 30px;"">There was a garbage bag in the dumpster.</div>","<img src=""Images/garbagebagfull.jpg""/>",experimental,y,1013,457,true,list_2,180970,y,y
0zhjr0hs,213,49,"<div style=""font-size: 30px;"">There was an apple in the bowl.</div>","<img src=""Images/apple.jpg""/>",experimental,y,348,352,true,list_2,182430,y,y
0zhjr0hs,216,112,"<div style=""font-size: 30px;"">There was a mayonnaise in the sandwich.</div>","<img src=""Images/tweezers.jpg""/>",filler,,290,613,true,list_2,184102,n,n
0zhjr0hs,219,5,"<div style=""font-size: 30px;"">There was a tomato on the vine.</div>","<img src=""Images/tomatoslice.jpg""/>",experimental,n,364,407,true,list_2,185635,y,y
0zhjr0hs,222,93,"<div style=""font-size: 30px;"">There was a goat in the distance.</div>","<img src=""Images/dandelion.jpg""/>",filler,,289,489,true,list_2,187174,n,n
0zhjr0hs,225,82,"<div style=""font-size: 30px;"">There was an ornament on the skirt.</div>","<img src=""Images/eraser.jpg""/>",filler,,227,717,true,list_2,188879,n,n
0zhjr0hs,228,59,"<div style=""font-size: 30px;"">There was an egg on the pan.</div>","<img src=""Images/eggpan.jpg""/>",experimental,y,102,522,true,list_2,190265,y,y
0zhjr0hs,231,58,"<div style=""font-size: 30px;"">There was watermelon in the bowl.</div>","<img src=""Images/watermelonslice.jpg""/>",experimental,y,98,431,false,list_2,191557,y,n
0zhjr0hs,234,73,"<div style=""font-size: 30px;"">There was a polar bear in the snow.</div>","<img src=""Images/truck.jpg""/>",filler,,252,962,true,list_2,193544,n,n
0zhjr0hs,237,81,"<div style=""font-size: 30px;"">There was a mannequin in the shop.</div>","<img src=""Images/axe.jpg""/>",filler,,295,624,true,list_2,195236,n,n
0zhjr0hs,240,113,"<div style=""font-size: 30px;"">There was a head on the neck.</div>","<img src=""Images/pinecone.jpg""/>",filler,,499,490,true,list_2,196988,n,n
0zhjr0hs,243,44,"<div style=""font-size: 30px;"">There was a cigarette in the ashtray.</div>","<img src=""Images/cigarette.jpg""/>",experimental,n,305,358,true,list_2,198413,y,y
0zhjr0hs,246,65,"<div style=""font-size: 30px;"">There was a doll on the bench.</div>","<img src=""Images/crate.jpg""/>",filler,,324,393,true,list_2,199896,n,n
0zhjr0hs,249,61,"<div style=""font-size: 30px;"">There was a monkey on the beach.</div>","<img src=""Images/pawn.jpg""/>",filler,,329,424,true,list_2,201423,n,n
0zhjr0hs,252,16,"<div style=""font-size: 30px;"">There was a shoelace in the sneaker.</div>","<img src=""Images/shoelacetied.jpg""/>",experimental,y,412,512,true,list_2,203107,y,y
0zhjr0hs,255,89,"<div style=""font-size: 30px;"">There was a snake in the grass.</div>","<img src=""Images/plunger.jpg""/>",filler,,602,369,true,list_2,204846,n,n
0zhjr0hs,258,72,"<div style=""font-size: 30px;"">There was a pencil in the cup.</div>","<img src=""Images/hairdryer.jpg""/>",filler,,331,509,true,list_2,206458,n,n
0zhjr0hs,261,90,"<div style=""font-size: 30px;"">There was raddish in the dish.</div>","<img src=""Images/qtip.jpg""/>",filler,,706,460,true,list_2,208391,n,n
0zhjr0hs,264,56,"<div style=""font-size: 30px;"">There was soap in the bath.</div>","<img src=""Images/soaplather.jpg""/>",experimental,y,282,555,true,list_2,210001,y,y
0zhjr0hs,267,4,"<div style=""font-size: 30px;"">There was an owl in the barn.</div>","<img src=""Images/owlsky.jpg""/>",experimental,n,246,428,true,list_2,211456,y,y
0zhjr0hs,270,19,"<div style=""font-size: 30px;"">There was a swiss knife in his hand.</div>","<img src=""Images/swissknife.jpg""/>",experimental,y,302,492,true,list_2,213011,y,y
0zhjr0hs,273,86,"<div style=""font-size: 30px;"">There was a chair in the bedroom.</div>","<img src=""Images/cauliflower.jpg""/>",filler,,199,487,true,list_2,214478,n,n
0zhjr0hs,276,8,"<div style=""font-size: 30px;"">There was a sailboat on the trailer.</div>","<img src=""Images/boat.jpg""/>",experimental,n,341,493,true,list_2,216083,y,y
0zhjr0hs,279,34,"<div style=""font-size: 30px;"">There was a coat on the floor.</div>","<img src=""Images/coatrack.jpg""/>",experimental,n,230,489,true,list_2,217562,y,y
0zhjr0hs,282,28,"<div style=""font-size: 30px;"">There was an avocado in the dish.</div>","<img src=""Images/avocadosliced.jpg""/>",experimental,y,403,586,true,list_2,219307,y,y
0zhjr0hs,285,111,"<div style=""font-size: 30px;"">There was a blanket in the armchair.</div>","<img src=""Images/pan.jpg""/>",filler,,410,538,true,list_2,221017,n,n
0zhjr0hs,288,101,"<div style=""font-size: 30px;"">There was salt on the table.</div>","<img src=""Images/shed.jpg""/>",filler,,364,550,true,list_2,222691,n,n
0zhjr0hs,291,106,"<div style=""font-size: 30px;"">There was a hippo in the zoo.</div>","<img src=""Images/crane.jpg""/>",filler,,305,591,true,list_2,224360,n,n
0zhjr0hs,294,3,"<div style=""font-size: 30px;"">There was a towel on the floor.</div>","<img src=""Images/towelhanging.jpg""/>",experimental,n,311,407,true,list_2,225850,y,y
0zhjr0hs,297,55,"<div style=""font-size: 30px;"">There was lemon in the drink.</div>","<img src=""Images/lemonslice.jpg""/>",experimental,y,364,729,true,list_2,227707,y,y
0zhjr0hs,300,85,"<div style=""font-size: 30px;"">There was a cactus in the pot.</div>","<img src=""Images/closet.jpg""/>",filler,,419,562,true,list_2,229465,n,n
0zhjr0hs,303,9,"<div style=""font-size: 30px;"">There was a squid in the water.</div>","<img src=""Images/squidcooked.jpg""/>",experimental,n,441,1834,true,list_2,232508,y,y
0zhjr0hs,306,80,"<div style=""font-size: 30px;"">There was a hammer in the basement.</div>","<img src=""Images/cow.jpg""/>",filler,,266,491,true,list_2,234037,n,n
0zhjr0hs,309,11,"<div style=""font-size: 30px;"">There was ice in the glass.</div>","<img src=""Images/icicles.jpg""/>",experimental,n,273,820,true,list_2,235887,y,y
0zhjr0hs,312,32,"<div style=""font-size: 30px;"">There was a match in the ashtray.</div>","<img src=""Images/match.jpg""/>",experimental,n,307,441,true,list_2,237402,y,y
0zhjr0hs,315,68,"<div style=""font-size: 30px;"">There was a tent in the shadow.</div>","<img src=""Images/peanut.jpg""/>",filler,,576,443,true,list_2,239188,n,n
0zhjr0hs,318,62,"<div style=""font-size: 30px;"">There was a tiger in the steppe.</div>","<img src=""Images/elephant.jpg""/>",filler,,259,587,true,list_2,240805,n,n
0zhjr0hs,321,31,"<div style=""font-size: 30px;"">There was a balloon in the air.</div>","<img src=""Images/balloondeflated.jpg""/>",experimental,n,289,739,true,list_2,242610,y,y
0zhjr0hs,324,18,"<div style=""font-size: 30px;"">There was cheesecake for the guest.</div>","<img src=""Images/cheesecakeslice.jpg""/>",experimental,y,314,529,true,list_2,244226,y,y
0zhjr0hs,327,114,"<div style=""font-size: 30px;"">There was a skier in the mountain.</div>","<img src=""Images/mangocut.jpg""/>",filler,,367,611,true,list_2,245965,n,n
0zhjr0hs,330,79,"<div style=""font-size: 30px;"">There was a pepper in the pastry.</div>","<img src=""Images/padlock.jpg""/>",filler,,460,503,true,list_2,247703,n,n
0zhjr0hs,333,115,"<div style=""font-size: 30px;"">There was a lounge in the garden.</div>","<img src=""Images/racquetballracket.jpg""/>",filler,,359,509,true,list_2,249339,n,n
0zhjr0hs,336,45,"<div style=""font-size: 30px;"">There was sugar on the spoon.</div>","<img src=""Images/sugardispenser.jpg""/>",experimental,n,531,689,true,list_2,251333,y,y
0zhjr0hs,339,74,"<div style=""font-size: 30px;"">There was a calculator on the desk.</div>","<img src=""Images/comb.jpg""/>",filler,,353,523,true,list_2,252972,n,n
0zhjr0hs,342,84,"<div style=""font-size: 30px;"">There was a surfboard in the river.</div>","<img src=""Images/cookinggrill.jpg""/>",filler,,511,582,true,list_2,254836,n,n
0zhjr0hs,345,27,"<div style=""font-size: 30px;"">There was an eagle in the sky.</div>","<img src=""Images/eaglesky.jpg""/>",experimental,y,542,486,true,list_2,256632,y,y
0zhjr0hs,348,50,"<div style=""font-size: 30px;"">There was pineapple on the skewer.</div>","<img src=""Images/pineapplechunk.jpg""/>",experimental,y,592,614,true,list_2,258609,y,y
0zhjr0hs,351,116,"<div style=""font-size: 30px;"">There was a seal in the cove.</div>","<img src=""Images/brush.jpg""/>",filler,,377,506,true,list_2,260258,n,n
0zhjr0hs,354,20,"<div style=""font-size: 30px;"">There was a lobster in the salad.</div>","<img src=""Images/lobstermeat.jpg""/>",experimental,y,412,762,true,list_2,262206,y,y
0zhjr0hs,357,71,"<div style=""font-size: 30px;"">There was a skateboard on the ground.</div>","<img src=""Images/bus.jpg""/>",filler,,863,461,true,list_2,264293,n,n
0zhjr0hs,360,118,"<div style=""font-size: 30px;"">There was a dart in his hand.</div>","<img src=""Images/cheesslice.jpg""/>",filler,,472,443,true,list_2,265980,n,n
0zhjr0hs,363,60,"<div style=""font-size: 30px;"">There was a frog in the pool.</div>","<img src=""Images/frogswim.jpg""/>",experimental,y,400,441,false,list_2,267592,y,n
cxxat1fj,6,84,"<div style=""font-size: 30px;"">There was a surfboard in the river.</div>","<img src=""Images/cookinggrill.jpg""/>",filler,,3451,959,true,list_2,101185,n,n
cxxat1fj,9,102,"<div style=""font-size: 30px;"">There was a cork in the bottle.</div>","<img src=""Images/clock.jpg""/>",filler,,1839,713,true,list_2,104495,n,n
cxxat1fj,12,24,"<div style=""font-size: 30px;"">There was a scarf on the floor.</div>","<img src=""Images/scarf.jpg""/>",experimental,y,1593,1088,true,list_2,107946,y,y
cxxat1fj,15,7,"<div style=""font-size: 30px;"">There was a lamp on the floor.</div>","<img src=""Images/lamptable.jpg""/>",experimental,n,1569,864,true,list_2,111134,y,y
cxxat1fj,18,4,"<div style=""font-size: 30px;"">There was an owl in the barn.</div>","<img src=""Images/owlsky.jpg""/>",experimental,n,1709,647,true,list_2,114260,y,y
cxxat1fj,21,25,"<div style=""font-size: 30px;"">There was a pumpkin on the porch.</div>","<img src=""Images/pumpkinface.jpg""/>",experimental,y,1406,974,true,list_2,117417,y,y
cxxat1fj,24,78,"<div style=""font-size: 30px;"">There was fire on campus.</div>","<img src=""Images/papaya.jpg""/>",filler,,1254,674,true,list_2,120114,n,n
cxxat1fj,27,104,"<div style=""font-size: 30px;"">There was a deck in the boardgame.</div>","<img src=""Images/church.jpg""/>",filler,,1549,1161,true,list_2,123589,n,n
cxxat1fj,30,91,"<div style=""font-size: 30px;"">There was football in the stadium.</div>","<img src=""Images/apartment.jpg""/>",filler,,1487,715,true,list_2,126554,n,n
cxxat1fj,33,46,"<div style=""font-size: 30px;"">There was a newspaper on the driveway.</div>","<img src=""Images/newspaper.jpg""/>",experimental,y,1388,658,true,list_2,129371,y,y
cxxat1fj,36,103,"<div style=""font-size: 30px;"">There was a flower in the vase.</div>","<img src=""Images/squeegee.jpg""/>",filler,,1386,654,true,list_2,132188,n,n
cxxat1fj,39,55,"<div style=""font-size: 30px;"">There was lemon in the drink.</div>","<img src=""Images/lemonslice.jpg""/>",experimental,y,955,631,true,list_2,134554,y,y
cxxat1fj,42,75,"<div style=""font-size: 30px;"">There was a statue in the park.</div>","<img src=""Images/button.jpg""/>",filler,,1460,740,true,list_2,137518,n,n
cxxat1fj,45,53,"<div style=""font-size: 30px;"">There was onion in the batter.</div>","<img src=""Images/onionslice.jpg""/>",experimental,y,1011,1521,true,list_2,140819,y,y
cxxat1fj,48,94,"<div style=""font-size: 30px;"">There was chimney on the roof.</div>","<img src=""Images/fountain.jpg""/>",filler,,1044,733,true,list_2,143367,n,n
cxxat1fj,51,114,"<div style=""font-size: 30px;"">There was a skier in the mountain.</div>","<img src=""Images/mangocut.jpg""/>",filler,,1465,714,true,list_2,146298,n,n
cxxat1fj,54,33,"<div style=""font-size: 30px;"">There was spaghetti in the bowl.</div>","<img src=""Images/spaghettibox.jpg""/>",experimental,n,1237,591,true,list_2,148892,y,y
cxxat1fj,57,106,"<div style=""font-size: 30px;"">There was a hippo in the zoo.</div>","<img src=""Images/crane.jpg""/>",filler,,765,781,true,list_2,151204,n,n
cxxat1fj,60,6,"<div style=""font-size: 30px;"">There was a book on the shelf.</div>","<img src=""Images/bookdown.jpg""/>",experimental,n,1094,620,true,list_2,153683,y,y
cxxat1fj,63,48,"<div style=""font-size: 30px;"">There was ketchup on the table.</div>","<img src=""Images/ketchupbottle.jpg""/>",experimental,y,1199,1517,true,list_2,157168,y,y
cxxat1fj,66,16,"<div style=""font-size: 30px;"">There was a shoelace in the sneaker.</div>","<img src=""Images/shoelacetied.jpg""/>",experimental,y,1648,683,true,list_2,160267,y,y
cxxat1fj,69,107,"<div style=""font-size: 30px;"">There was a mouse in the trap.</div>","<img src=""Images/wateringcan.jpg""/>",filler,,917,562,true,list_2,162506,n,n
cxxat1fj,72,67,"<div style=""font-size: 30px;"">There was a hill in the village.</div>","<img src=""Images/scissors.jpg""/>",filler,,1197,803,true,list_2,165278,n,n
cxxat1fj,75,85,"<div style=""font-size: 30px;"">There was a cactus in the pot.</div>","<img src=""Images/closet.jpg""/>",filler,,1679,534,false,list_2,168256,n,y
cxxat1fj,78,97,"<div style=""font-size: 30px;"">There was a pyramid by the museum.</div>","<img src=""Images/couch.jpg""/>",filler,,1911,841,true,list_2,171782,n,n
cxxat1fj,81,45,"<div style=""font-size: 30px;"">There was sugar on the spoon.</div>","<img src=""Images/sugardispenser.jpg""/>",experimental,n,1487,830,true,list_2,174874,y,y
cxxat1fj,84,3,"<div style=""font-size: 30px;"">There was a towel on the floor.</div>","<img src=""Images/towelhanging.jpg""/>",experimental,n,2193,1473,true,list_2,179308,y,y
cxxat1fj,87,61,"<div style=""font-size: 30px;"">There was a monkey on the beach.</div>","<img src=""Images/pawn.jpg""/>",filler,,1017,739,true,list_2,181831,n,n
cxxat1fj,90,38,"<div style=""font-size: 30px;"">There was carrot in the curry.</div>","<img src=""Images/carrot.jpg""/>",experimental,n,1163,718,true,list_2,184476,y,y
cxxat1fj,93,34,"<div style=""font-size: 30px;"">There was a coat on the floor.</div>","<img src=""Images/coatrack.jpg""/>",experimental,n,1112,1090,true,list_2,187436,y,y
cxxat1fj,96,58,"<div style=""font-size: 30px;"">There was watermelon in the bowl.</div>","<img src=""Images/watermelonslice.jpg""/>",experimental,y,1473,677,true,list_2,190364,y,y
cxxat1fj,99,86,"<div style=""font-size: 30px;"">There was a chair in the bedroom.</div>","<img src=""Images/cauliflower.jpg""/>",filler,,1159,709,true,list_2,193004,n,n
cxxat1fj,102,74,"<div style=""font-size: 30px;"">There was a calculator on the desk.</div>","<img src=""Images/comb.jpg""/>",filler,,1222,655,true,list_2,195648,n,n
cxxat1fj,105,30,"<div style=""font-size: 30px;"">There was a tissue in the trashcan.</div>","<img src=""Images/tissuecrumpled.jpg""/>",experimental,y,1266,680,true,list_2,198372,y,y
cxxat1fj,108,2,"<div style=""font-size: 30px;"">There was apple pie on the table.</div>","<img src=""Images/applepieslice.jpg""/>",experimental,n,1329,708,true,list_2,201169,y,y
cxxat1fj,111,65,"<div style=""font-size: 30px;"">There was a doll on the bench.</div>","<img src=""Images/crate.jpg""/>",filler,,950,797,true,list_2,203691,n,n
cxxat1fj,114,29,"<div style=""font-size: 30px;"">There was paint in the drawing.</div>","<img src=""Images/paintstroke.jpg""/>",experimental,y,1152,741,true,list_2,206348,y,y
cxxat1fj,117,42,"<div style=""font-size: 30px;"">There was cucumber in the salad.</div>","<img src=""Images/cucumbersliced.jpg""/>",experimental,n,1359,556,true,list_2,209030,y,y
cxxat1fj,120,26,"<div style=""font-size: 30px;"">There was a garbage bag in the dumpster.</div>","<img src=""Images/garbagebagfull.jpg""/>",experimental,y,1620,502,true,list_2,211914,y,y
cxxat1fj,123,111,"<div style=""font-size: 30px;"">There was a blanket in the armchair.</div>","<img src=""Images/pan.jpg""/>",filler,,3463,2094,true,list_2,218240,n,n
cxxat1fj,126,64,"<div style=""font-size: 30px;"">There was a battery in the phone.</div>","<img src=""Images/screw.jpg""/>",filler,,1241,650,true,list_2,220905,n,n
cxxat1fj,129,1,"<div style=""font-size: 30px;"">There was corn in the field.</div>","<img src=""Images/cornpieces.jpg""/>",experimental,n,862,836,true,list_2,223372,y,y
cxxat1fj,132,36,"<div style=""font-size: 30px;"">There was an airplane in the sky.</div>","<img src=""Images/airplanewheels.jpg""/>",experimental,n,1159,688,true,list_2,225991,y,y
cxxat1fj,135,66,"<div style=""font-size: 30px;"">There was a pen in her satchel.</div>","<img src=""Images/dice.jpg""/>",filler,,1536,572,true,list_2,228875,n,n
cxxat1fj,138,56,"<div style=""font-size: 30px;"">There was soap in the bath.</div>","<img src=""Images/soaplather.jpg""/>",experimental,y,1177,1332,true,list_2,232149,y,y
cxxat1fj,141,39,"<div style=""font-size: 30px;"">There was banana on the pancake.</div>","<img src=""Images/banana.jpg""/>",experimental,n,1180,558,true,list_2,234654,y,y
cxxat1fj,144,28,"<div style=""font-size: 30px;"">There was an avocado in the dish.</div>","<img src=""Images/avocadosliced.jpg""/>",experimental,y,1060,647,true,list_2,237120,y,y
cxxat1fj,147,27,"<div style=""font-size: 30px;"">There was an eagle in the sky.</div>","<img src=""Images/eaglesky.jpg""/>",experimental,y,1026,583,true,list_2,239490,y,y
cxxat1fj,150,21,"<div style=""font-size: 30px;"">There was a lime in the Corona bottle.</div>","<img src=""Images/limewedge.jpg""/>",experimental,y,1768,669,true,list_2,242697,y,y
cxxat1fj,153,117,"<div style=""font-size: 30px;"">There was a pitcher in the bar.</div>","<img src=""Images/spraycan.jpg""/>",filler,,922,895,true,list_2,245285,n,n
cxxat1fj,156,105,"<div style=""font-size: 30px;"">There was a whistle in the gym.</div>","<img src=""Images/safetypin.jpg""/>",filler,,918,738,true,list_2,247698,n,n
cxxat1fj,159,81,"<div style=""font-size: 30px;"">There was a mannequin in the shop.</div>","<img src=""Images/axe.jpg""/>",filler,,1023,662,true,list_2,250153,n,n
cxxat1fj,162,110,"<div style=""font-size: 30px;"">There was a kettle in the kitchen.</div>","<img src=""Images/measuringtape.jpg""/>",filler,,985,599,true,list_2,252498,n,n
cxxat1fj,165,49,"<div style=""font-size: 30px;"">There was an apple in the bowl.</div>","<img src=""Images/apple.jpg""/>",experimental,y,1144,528,true,list_2,254936,y,y
cxxat1fj,168,44,"<div style=""font-size: 30px;"">There was a cigarette in the ashtray.</div>","<img src=""Images/cigarette.jpg""/>",experimental,n,1189,940,true,list_2,257821,y,y
cxxat1fj,171,68,"<div style=""font-size: 30px;"">There was a tent in the shadow.</div>","<img src=""Images/peanut.jpg""/>",filler,,900,675,true,list_2,260165,n,n
cxxat1fj,174,10,"<div style=""font-size: 30px;"">There was a mushroom in the forest.</div>","<img src=""Images/mushroomsliced.jpg""/>",experimental,n,955,997,true,list_2,262885,y,y
cxxat1fj,177,47,"<div style=""font-size: 30px;"">There was a horse in the stable.</div>","<img src=""Images/horse.jpg""/>",experimental,y,841,641,true,list_2,265146,y,y
cxxat1fj,180,52,"<div style=""font-size: 30px;"">There was a map on the wall.</div>","<img src=""Images/mapwall.jpg""/>",experimental,y,830,646,true,list_2,267385,y,y
cxxat1fj,183,60,"<div style=""font-size: 30px;"">There was a frog in the pool.</div>","<img src=""Images/frogswim.jpg""/>",experimental,y,707,682,true,list_2,269546,y,y
cxxat1fj,186,88,"<div style=""font-size: 30px;"">There was a pot on the stove.</div>","<img src=""Images/rose.jpg""/>",filler,,955,953,true,list_2,272219,n,n
cxxat1fj,189,51,"<div style=""font-size: 30px;"">There was wool in the sweater.</div>","<img src=""Images/woolknit.jpg""/>",experimental,y,1256,776,true,list_2,275027,y,y
cxxat1fj,192,112,"<div style=""font-size: 30px;"">There was a mayonnaise in the sandwich.</div>","<img src=""Images/tweezers.jpg""/>",filler,,1147,596,true,list_2,277542,n,n
cxxat1fj,195,19,"<div style=""font-size: 30px;"">There was a swiss knife in his hand.</div>","<img src=""Images/swissknife.jpg""/>",experimental,y,800,1143,true,list_2,280262,y,y
cxxat1fj,198,93,"<div style=""font-size: 30px;"">There was a goat in the distance.</div>","<img src=""Images/dandelion.jpg""/>",filler,,1185,641,true,list_2,282864,n,n
cxxat1fj,201,31,"<div style=""font-size: 30px;"">There was a balloon in the air.</div>","<img src=""Images/balloondeflated.jpg""/>",experimental,n,915,1043,true,list_2,285593,y,y
cxxat1fj,204,37,"<div style=""font-size: 30px;"">There was tinfoil in the garbage.</div>","<img src=""Images/foil.jpg""/>",experimental,n,1433,726,true,list_2,288506,y,y
cxxat1fj,207,15,"<div style=""font-size: 30px;"">There was an umbrella in her backpack.</div>","<img src=""Images/umbrellahand.jpg""/>",experimental,n,958,703,true,list_2,290935,y,y
cxxat1fj,210,9,"<div style=""font-size: 30px;"">There was a squid in the water.</div>","<img src=""Images/squidcooked.jpg""/>",experimental,n,654,2308,true,list_2,294668,y,y
cxxat1fj,213,80,"<div style=""font-size: 30px;"">There was a hammer in the basement.</div>","<img src=""Images/cow.jpg""/>",filler,,696,623,true,list_2,296744,n,n
cxxat1fj,216,12,"<div style=""font-size: 30px;"">There was a shirt on the hanger.</div>","<img src=""Images/shirtfolded.jpg""/>",experimental,n,711,546,true,list_2,298772,y,y
cxxat1fj,219,71,"<div style=""font-size: 30px;"">There was a skateboard on the ground.</div>","<img src=""Images/bus.jpg""/>",filler,,1379,635,true,list_2,301560,n,n
cxxat1fj,222,116,"<div style=""font-size: 30px;"">There was a seal in the cove.</div>","<img src=""Images/brush.jpg""/>",filler,,633,559,true,list_2,303513,n,n
cxxat1fj,225,90,"<div style=""font-size: 30px;"">There was raddish in the dish.</div>","<img src=""Images/qtip.jpg""/>",filler,,781,785,true,list_2,305847,n,n
cxxat1fj,228,77,"<div style=""font-size: 30px;"">There was a lipstick in the purse.</div>","<img src=""Images/castle.jpg""/>",filler,,900,533,true,list_2,308040,n,n
cxxat1fj,231,83,"<div style=""font-size: 30px;"">There was a thumbtack on the board.</div>","<img src=""Images/mango.jpg""/>",filler,,1684,655,true,list_2,311146,n,n
cxxat1fj,234,13,"<div style=""font-size: 30px;"">There was a staple in the machine.</div>","<img src=""Images/staplepaper.jpg""/>",experimental,n,1597,834,true,list_2,314356,y,y
cxxat1fj,237,95,"<div style=""font-size: 30px;"">There was a mug on the coaster.</div>","<img src=""Images/grater.jpg""/>",filler,,734,989,true,list_2,316851,n,n
cxxat1fj,240,17,"<div style=""font-size: 30px;"">There was a walnut on the brownie.</div>","<img src=""Images/walnutpiece.jpg""/>",experimental,y,1222,666,true,list_2,319513,y,y
cxxat1fj,243,92,"<div style=""font-size: 30px;"">There was a wrench in the toolbox.</div>","<img src=""Images/tambourine.jpg""/>",filler,,1225,962,true,list_2,322465,n,n
cxxat1fj,246,100,"<div style=""font-size: 30px;"">There was a carriage on the highway.</div>","<img src=""Images/orange.jpg""/>",filler,,1103,566,true,list_2,324899,n,n
cxxat1fj,249,40,"<div style=""font-size: 30px;"">There was a goose in the sky.</div>","<img src=""Images/gooseland.jpg""/>",experimental,n,1184,792,true,list_2,327653,y,y
cxxat1fj,252,82,"<div style=""font-size: 30px;"">There was an ornament on the skirt.</div>","<img src=""Images/eraser.jpg""/>",filler,,1136,641,true,list_2,330194,n,n
cxxat1fj,255,87,"<div style=""font-size: 30px;"">There was a blueberry in the cereal.</div>","<img src=""Images/cushion.jpg""/>",filler,,1335,561,true,list_2,332843,n,n
cxxat1fj,258,79,"<div style=""font-size: 30px;"">There was a pepper in the pastry.</div>","<img src=""Images/padlock.jpg""/>",filler,,1557,595,true,list_2,335775,n,n
cxxat1fj,261,23,"<div style=""font-size: 30px;"">There was a hockey player on the bench.</div>","<img src=""Images/hockeyplayerbench.jpg""/>",experimental,y,1393,541,true,list_2,338487,y,y
cxxat1fj,264,119,"<div style=""font-size: 30px;"">There was a guitar on the stage.</div>","<img src=""Images/candle.jpg""/>",filler,,930,515,true,list_2,340692,n,n
cxxat1fj,267,63,"<div style=""font-size: 30px;"">There was a tree on the trail.</div>","<img src=""Images/mussel.jpg""/>",filler,,1201,674,true,list_2,343336,n,n
cxxat1fj,270,14,"<div style=""font-size: 30px;"">There was a zodiac in the ocean.</div>","<img src=""Images/zodiacdeflated.jpg""/>",experimental,n,1023,875,false,list_2,346006,y,n
cxxat1fj,273,50,"<div style=""font-size: 30px;"">There was pineapple on the skewer.</div>","<img src=""Images/pineapplechunk.jpg""/>",experimental,y,945,548,true,list_2,348262,y,y
cxxat1fj,276,18,"<div style=""font-size: 30px;"">There was cheesecake for the guest.</div>","<img src=""Images/cheesecakeslice.jpg""/>",experimental,y,707,671,true,list_2,350413,y,y
cxxat1fj,279,120,"<div style=""font-size: 30px;"">There was a cottage in the valley.</div>","<img src=""Images/candy.jpg""/>",filler,,609,596,true,list_2,352396,n,n
cxxat1fj,282,41,"<div style=""font-size: 30px;"">There was tape on the package.</div>","<img src=""Images/taperoll.jpg""/>",experimental,n,840,526,true,list_2,354528,y,y
cxxat1fj,285,35,"<div style=""font-size: 30px;"">There was fish in the oven.</div>","<img src=""Images/fish.jpg""/>",experimental,n,688,782,true,list_2,356768,y,y
cxxat1fj,288,89,"<div style=""font-size: 30px;"">There was a snake in the grass.</div>","<img src=""Images/plunger.jpg""/>",filler,,1162,598,true,list_2,359300,n,n
cxxat1fj,291,62,"<div style=""font-size: 30px;"">There was a tiger in the steppe.</div>","<img src=""Images/elephant.jpg""/>",filler,,1243,591,true,list_2,361895,n,n
cxxat1fj,294,73,"<div style=""font-size: 30px;"">There was a polar bear in the snow.</div>","<img src=""Images/truck.jpg""/>",filler,,1090,539,true,list_2,364280,n,n
cxxat1fj,297,59,"<div style=""font-size: 30px;"">There was an egg on the pan.</div>","<img src=""Images/eggpan.jpg""/>",experimental,y,1018,960,true,list_2,367022,y,y
cxxat1fj,300,118,"<div style=""font-size: 30px;"">There was a dart in his hand.</div>","<img src=""Images/cheesslice.jpg""/>",filler,,883,630,true,list_2,369293,n,n
cxxat1fj,303,43,"<div style=""font-size: 30px;"">There was bread in the toaster.</div>","<img src=""Images/breadloaf.jpg""/>",experimental,n,838,890,true,list_2,371784,y,y
cxxat1fj,306,22,"<div style=""font-size: 30px;"">There was a hose on the lawn.</div>","<img src=""Images/hoselawn.jpg""/>",experimental,y,978,809,true,list_2,374338,y,y
cxxat1fj,309,76,"<div style=""font-size: 30px;"">There was a kayak in the river.</div>","<img src=""Images/lamppost.jpg""/>",filler,,1408,521,true,list_2,377034,n,n
cxxat1fj,312,108,"<div style=""font-size: 30px;"">There was a cap on the head.</div>","<img src=""Images/car.jpg""/>",filler,,1025,544,true,list_2,379370,n,n
cxxat1fj,315,101,"<div style=""font-size: 30px;"">There was salt on the table.</div>","<img src=""Images/shed.jpg""/>",filler,,1016,868,true,list_2,382023,n,n
cxxat1fj,318,99,"<div style=""font-size: 30px;"">There was a plug by the door.</div>","<img src=""Images/bat.jpg""/>",filler,,802,516,true,list_2,384114,n,n
cxxat1fj,321,57,"<div style=""font-size: 30px;"">There was chicken in the oven.</div>","<img src=""Images/chickenoven.jpg""/>",experimental,y,718,684,true,list_2,386298,y,y
cxxat1fj,324,20,"<div style=""font-size: 30px;"">There was a lobster in the salad.</div>","<img src=""Images/lobstermeat.jpg""/>",experimental,y,777,738,true,list_2,388573,y,y
cxxat1fj,327,109,"<div style=""font-size: 30px;"">There was a chessboard in the classroom.</div>","<img src=""Images/bridge.jpg""/>",filler,,1652,616,true,list_2,391609,n,n
cxxat1fj,330,5,"<div style=""font-size: 30px;"">There was a tomato on the vine.</div>","<img src=""Images/tomatoslice.jpg""/>",experimental,n,844,671,true,list_2,393892,y,y
cxxat1fj,333,115,"<div style=""font-size: 30px;"">There was a lounge in the garden.</div>","<img src=""Images/racquetballracket.jpg""/>",filler,,960,575,true,list_2,396193,n,n
cxxat1fj,336,98,"<div style=""font-size: 30px;"">There was milk in the jar.</div>","<img src=""Images/strawberry.jpg""/>",filler,,592,512,true,list_2,398061,n,n
cxxat1fj,339,72,"<div style=""font-size: 30px;"">There was a pencil in the cup.</div>","<img src=""Images/hairdryer.jpg""/>",filler,,883,578,true,list_2,400287,n,n
cxxat1fj,342,11,"<div style=""font-size: 30px;"">There was ice in the glass.</div>","<img src=""Images/icicles.jpg""/>",experimental,n,967,648,true,list_2,402669,y,y
cxxat1fj,345,96,"<div style=""font-size: 30px;"">There was a bicycle in the driveway.</div>","<img src=""Images/acorn.jpg""/>",filler,,1186,533,true,list_2,405163,n,n
cxxat1fj,348,32,"<div style=""font-size: 30px;"">There was a match in the ashtray.</div>","<img src=""Images/match.jpg""/>",experimental,n,1051,524,true,list_2,407513,y,y
cxxat1fj,351,113,"<div style=""font-size: 30px;"">There was a head on the neck.</div>","<img src=""Images/pinecone.jpg""/>",filler,,1032,691,true,list_2,410009,n,n
cxxat1fj,354,69,"<div style=""font-size: 30px;"">There was a bush in the meadow.</div>","<img src=""Images/hairpin.jpg""/>",filler,,1112,554,true,list_2,412452,n,n
cxxat1fj,357,54,"<div style=""font-size: 30px;"">There was wheat in the mill.</div>","<img src=""Images/wheatpieces.jpg""/>",experimental,y,863,1267,false,list_2,415348,y,n
cxxat1fj,360,8,"<div style=""font-size: 30px;"">There was a sailboat on the trailer.</div>","<img src=""Images/boat.jpg""/>",experimental,n,1359,804,true,list_2,418279,y,y
cxxat1fj,363,70,"<div style=""font-size: 30px;"">There was a yard by the kindergarten.</div>","<img src=""Images/penguin.jpg""/>",filler,,1122,600,true,list_2,420762,n,n
kddy6crg,6,55,"<div style=""font-size: 30px;"">There was lemon in the drink.</div>","<img src=""Images/lemon.jpg""/>",experimental,n,12101,1996,true,list_1,81512,y,y
kddy6crg,9,111,"<div style=""font-size: 30px;"">There was a blanket in the armchair.</div>","<img src=""Images/pan.jpg""/>",filler,,3911,1164,true,list_1,87352,n,n
kddy6crg,12,113,"<div style=""font-size: 30px;"">There was a head on the neck.</div>","<img src=""Images/pinecone.jpg""/>",filler,,3175,1970,true,list_1,93264,n,n
kddy6crg,15,100,"<div style=""font-size: 30px;"">There was a carriage on the highway.</div>","<img src=""Images/orange.jpg""/>",filler,,3013,915,true,list_1,97968,n,n
kddy6crg,18,98,"<div style=""font-size: 30px;"">There was milk in the jar.</div>","<img src=""Images/strawberry.jpg""/>",filler,,1963,825,true,list_1,101528,n,n
kddy6crg,21,63,"<div style=""font-size: 30px;"">There was a tree on the trail.</div>","<img src=""Images/mussel.jpg""/>",filler,,2501,1811,true,list_1,106608,n,n
kddy6crg,24,44,"<div style=""font-size: 30px;"">There was a cigarette in the ashtray.</div>","<img src=""Images/cigarettebutt.jpg""/>",experimental,y,1309,1442,true,list_1,110136,y,y
kddy6crg,27,110,"<div style=""font-size: 30px;"">There was a kettle in the kitchen.</div>","<img src=""Images/measuringtape.jpg""/>",filler,,1962,1080,true,list_1,113944,n,n
kddy6crg,30,51,"<div style=""font-size: 30px;"">There was wool in the sweater.</div>","<img src=""Images/woolball.jpg""/>",experimental,n,3022,1256,true,list_1,118992,y,y
kddy6crg,33,6,"<div style=""font-size: 30px;"">There was a book on the shelf.</div>","<img src=""Images/book.jpg""/>",experimental,y,1770,974,true,list_1,122503,y,y
kddy6crg,36,39,"<div style=""font-size: 30px;"">There was banana on the pancake.</div>","<img src=""Images/bananacut.jpg""/>",experimental,y,2205,995,true,list_1,126479,y,y
kddy6crg,39,80,"<div style=""font-size: 30px;"">There was a hammer in the basement.</div>","<img src=""Images/cow.jpg""/>",filler,,2596,681,true,list_1,130528,n,n
kddy6crg,42,61,"<div style=""font-size: 30px;"">There was a monkey on the beach.</div>","<img src=""Images/pawn.jpg""/>",filler,,2611,951,true,list_1,134864,n,n
kddy6crg,45,115,"<div style=""font-size: 30px;"">There was a lounge in the garden.</div>","<img src=""Images/racquetballracket.jpg""/>",filler,,1840,921,true,list_1,138392,n,n
kddy6crg,48,56,"<div style=""font-size: 30px;"">There was soap in the bath.</div>","<img src=""Images/soapbar.jpg""/>",experimental,n,2102,839,true,list_1,142096,y,y
kddy6crg,51,31,"<div style=""font-size: 30px;"">There was a balloon in the air.</div>","<img src=""Images/balloon.jpg""/>",experimental,y,1795,994,true,list_1,145656,y,y
kddy6crg,54,48,"<div style=""font-size: 30px;"">There was ketchup on the plate.</div>","<img src=""Images/ketchupbottle.jpg""/>",experimental,n,1775,1049,true,list_1,149247,y,y
kddy6crg,57,65,"<div style=""font-size: 30px;"">There was a doll on the bench.</div>","<img src=""Images/crate.jpg""/>",filler,,1681,759,true,list_1,152464,n,n
kddy6crg,60,54,"<div style=""font-size: 30px;"">There was wheat in the mill.</div>","<img src=""Images/wheat.jpg""/>",experimental,n,1859,886,true,list_1,155976,y,y
kddy6crg,63,45,"<div style=""font-size: 30px;"">There was sugar on the spoon.</div>","<img src=""Images/sugar.jpg""/>",experimental,y,2398,981,true,list_1,160128,y,y
kddy6crg,66,67,"<div style=""font-size: 30px;"">There was a hill in the village.</div>","<img src=""Images/scissors.jpg""/>",filler,,1534,595,true,list_1,163024,n,n
kddy6crg,69,82,"<div style=""font-size: 30px;"">There was an ornament on the skirt.</div>","<img src=""Images/eraser.jpg""/>",filler,,1754,864,true,list_1,166416,n,n
kddy6crg,72,72,"<div style=""font-size: 30px;"">There was a pencil in the cup.</div>","<img src=""Images/hairdryer.jpg""/>",filler,,1558,1061,true,list_1,169800,n,n
kddy6crg,75,24,"<div style=""font-size: 30px;"">There was a scarf on the rack.</div>","<img src=""Images/scarf.jpg""/>",experimental,n,2098,4752,true,list_1,177407,y,y
kddy6crg,78,20,"<div style=""font-size: 30px;"">There was a lobster in the sea.</div>","<img src=""Images/lobstermeat.jpg""/>",experimental,n,1682,1042,true,list_1,180896,y,y
kddy6crg,81,107,"<div style=""font-size: 30px;"">There was a mouse in the trap.</div>","<img src=""Images/wateringcan.jpg""/>",filler,,1682,913,true,list_1,184256,n,n
kddy6crg,84,8,"<div style=""font-size: 30px;"">There was a sailboat on the trailer.</div>","<img src=""Images/boatnosail.jpg""/>",experimental,y,1761,8993,true,list_1,195784,y,y
kddy6crg,87,73,"<div style=""font-size: 30px;"">There was a polar bear in the snow.</div>","<img src=""Images/truck.jpg""/>",filler,,1420,825,true,list_1,198800,n,n
kddy6crg,90,32,"<div style=""font-size: 30px;"">There was a match in the ashtray.</div>","<img src=""Images/matchburned.jpg""/>",experimental,y,1467,1259,true,list_1,202296,y,y
kddy6crg,93,13,"<div style=""font-size: 30px;"">There was a staple in the machine.</div>","<img src=""Images/staplemachine.jpg""/>",experimental,y,1654,982,true,list_1,205704,y,y
kddy6crg,96,101,"<div style=""font-size: 30px;"">There was salt on the table.</div>","<img src=""Images/shed.jpg""/>",filler,,1210,1691,true,list_1,209368,n,n
kddy6crg,99,41,"<div style=""font-size: 30px;"">There was tape on the package.</div>","<img src=""Images/tape.jpg""/>",experimental,y,835,1772,true,list_1,212752,y,y
kddy6crg,102,57,"<div style=""font-size: 30px;"">There was chicken in the oven.</div>","<img src=""Images/chicken.jpg""/>",experimental,n,1397,813,true,list_1,215728,y,y
kddy6crg,105,92,"<div style=""font-size: 30px;"">There was a wrench in the toolbox.</div>","<img src=""Images/tambourine.jpg""/>",filler,,1517,850,true,list_1,218864,n,n
kddy6crg,108,81,"<div style=""font-size: 30px;"">There was a mannequin in the shop.</div>","<img src=""Images/axe.jpg""/>",filler,,1120,989,true,list_1,221744,n,n
kddy6crg,111,96,"<div style=""font-size: 30px;"">There was a bicycle in the driveway.</div>","<img src=""Images/acorn.jpg""/>",filler,,1140,722,true,list_1,224376,n,n
kddy6crg,114,60,"<div style=""font-size: 30px;"">There was a frog in the pool.</div>","<img src=""Images/frogsit.jpg""/>",experimental,n,1151,698,true,list_1,226992,y,y
kddy6crg,117,59,"<div style=""font-size: 30px;"">There was an egg on the pan.</div>","<img src=""Images/egg.jpg""/>",experimental,n,1161,2658,true,list_1,231584,y,y
kddy6crg,120,79,"<div style=""font-size: 30px;"">There was a pepper in the pastry.</div>","<img src=""Images/padlock.jpg""/>",filler,,1666,760,true,list_1,234783,n,n
kddy6crg,123,52,"<div style=""font-size: 30px;"">There was a map on the wall.</div>","<img src=""Images/mapfolded.jpg""/>",experimental,n,1050,1142,true,list_1,237751,y,y
kddy6crg,126,27,"<div style=""font-size: 30px;"">There was an eagle in the nest.</div>","<img src=""Images/eaglesky.jpg""/>",experimental,n,1601,836,true,list_1,240943,y,y
kddy6crg,129,97,"<div style=""font-size: 30px;"">There was a pyramid by the museum.</div>","<img src=""Images/couch.jpg""/>",filler,,2241,733,true,list_1,244679,n,n
kddy6crg,132,4,"<div style=""font-size: 30px;"">There was an owl in the barn.</div>","<img src=""Images/owlsit.jpg""/>",experimental,y,2162,613,true,list_1,248207,y,y
kddy6crg,135,112,"<div style=""font-size: 30px;"">There was a mayonnaise in the sandwich.</div>","<img src=""Images/tweezers.jpg""/>",filler,,2037,803,true,list_1,251815,n,n
kddy6crg,138,37,"<div style=""font-size: 30px;"">There was tinfoil in the garbage.</div>","<img src=""Images/foilcrcumpled.jpg""/>",experimental,y,2127,791,true,list_1,255511,y,y
kddy6crg,141,99,"<div style=""font-size: 30px;"">There was a plug by the door.</div>","<img src=""Images/bat.jpg""/>",filler,,1748,717,true,list_1,258735,n,n
kddy6crg,144,78,"<div style=""font-size: 30px;"">There was fire on campus.</div>","<img src=""Images/papaya.jpg""/>",filler,,1815,584,true,list_1,261894,n,n
kddy6crg,147,21,"<div style=""font-size: 30px;"">There was a lime in the produce section.</div>","<img src=""Images/limewedge.jpg""/>",experimental,n,1620,1239,true,list_1,265535,y,y
kddy6crg,150,84,"<div style=""font-size: 30px;"">There was a surfboard in the river.</div>","<img src=""Images/cookinggrill.jpg""/>",filler,,1855,573,true,list_1,268726,n,n
kddy6crg,153,86,"<div style=""font-size: 30px;"">There was a chair in the bedroom.</div>","<img src=""Images/cauliflower.jpg""/>",filler,,1379,720,true,list_1,271599,n,n
kddy6crg,156,30,"<div style=""font-size: 30px;"">There was a tissue in the box.</div>","<img src=""Images/tissuecrumpled.jpg""/>",experimental,n,1043,736,true,list_1,274151,y,y
kddy6crg,159,90,"<div style=""font-size: 30px;"">There was raddish in the dish.</div>","<img src=""Images/qtip.jpg""/>",filler,,1318,596,true,list_1,276830,n,n
kddy6crg,162,22,"<div style=""font-size: 30px;"">There was a hose on the wall.</div>","<img src=""Images/hoselawn.jpg""/>",experimental,n,1183,1249,true,list_1,280022,y,y
kddy6crg,165,105,"<div style=""font-size: 30px;"">There was a whistle in the gym.</div>","<img src=""Images/safetypin.jpg""/>",filler,,1054,537,true,list_1,282391,n,n
kddy6crg,168,69,"<div style=""font-size: 30px;"">There was a bush in the meadow.</div>","<img src=""Images/hairpin.jpg""/>",filler,,1237,697,true,list_1,285102,n,n
kddy6crg,171,47,"<div style=""font-size: 30px;"">There was a horse in the arena.</div>","<img src=""Images/horse.jpg""/>",experimental,n,1259,597,true,list_1,287718,y,y
kddy6crg,174,43,"<div style=""font-size: 30px;"">There was bread in the toaster.</div>","<img src=""Images/breadtoast.jpg""/>",experimental,y,1094,643,true,list_1,290222,y,y
kddy6crg,177,34,"<div style=""font-size: 30px;"">There was a coat on the floor.</div>","<img src=""Images/coatfloor.jpg""/>",experimental,y,2654,1094,true,list_1,294743,y,y
kddy6crg,180,83,"<div style=""font-size: 30px;"">There was a thumbtack on the board.</div>","<img src=""Images/mango.jpg""/>",filler,,1130,474,true,list_1,297110,n,n
kddy6crg,183,114,"<div style=""font-size: 30px;"">There was a skier in the mountain.</div>","<img src=""Images/mangocut.jpg""/>",filler,,1517,594,true,list_1,299998,n,n
kddy6crg,186,117,"<div style=""font-size: 30px;"">There was a pitcher in the bar.</div>","<img src=""Images/spraycan.jpg""/>",filler,,1278,890,true,list_1,302926,n,n
kddy6crg,189,62,"<div style=""font-size: 30px;"">There was a tiger in the steppe.</div>","<img src=""Images/elephant.jpg""/>",filler,,1690,734,true,list_1,306111,n,n
kddy6crg,192,93,"<div style=""font-size: 30px;"">There was a goat in the distance.</div>","<img src=""Images/dandelion.jpg""/>",filler,,1253,802,true,list_1,308935,n,n
kddy6crg,195,95,"<div style=""font-size: 30px;"">There was a mug on the coaster.</div>","<img src=""Images/grater.jpg""/>",filler,,1442,815,true,list_1,311951,n,n
kddy6crg,198,75,"<div style=""font-size: 30px;"">There was a statue in the park.</div>","<img src=""Images/button.jpg""/>",filler,,1161,580,true,list_1,314455,n,n
kddy6crg,201,1,"<div style=""font-size: 30px;"">There was corn in the field.</div>","<img src=""Images/corn.jpg""/>",experimental,y,1096,595,true,list_1,316911,y,y
kddy6crg,204,70,"<div style=""font-size: 30px;"">There was a yard by the kindergarten.</div>","<img src=""Images/penguin.jpg""/>",filler,,1112,488,true,list_1,319279,n,n
kddy6crg,207,91,"<div style=""font-size: 30px;"">There was football in the stadium.</div>","<img src=""Images/apartment.jpg""/>",filler,,1201,813,true,list_1,322047,n,n
kddy6crg,210,108,"<div style=""font-size: 30px;"">There was a cap on the head.</div>","<img src=""Images/car.jpg""/>",filler,,1073,596,true,list_1,324479,n,n
kddy6crg,213,50,"<div style=""font-size: 30px;"">There was pineapple on the skewer.</div>","<img src=""Images/pineapple.jpg""/>",experimental,n,1193,872,true,list_1,327311,y,y
kddy6crg,216,28,"<div style=""font-size: 30px;"">There was an avocado in the pantry.</div>","<img src=""Images/avocadosliced.jpg""/>",experimental,n,995,1820,true,list_1,330895,y,y
kddy6crg,219,85,"<div style=""font-size: 30px;"">There was a cactus in the pot.</div>","<img src=""Images/closet.jpg""/>",filler,,932,656,true,list_1,333255,n,n
kddy6crg,222,36,"<div style=""font-size: 30px;"">There was an airplane in the sky.</div>","<img src=""Images/airplanesky.jpg""/>",experimental,y,799,541,true,list_1,335351,y,y
kddy6crg,225,25,"<div style=""font-size: 30px;"">There was a pumpkin on the cart.</div>","<img src=""Images/pumpkinface.jpg""/>",experimental,n,943,1115,true,list_1,338175,y,y
kddy6crg,228,118,"<div style=""font-size: 30px;"">There was a dart in his hand.</div>","<img src=""Images/cheesslice.jpg""/>",filler,,1201,489,true,list_1,340631,n,n
kddy6crg,231,18,"<div style=""font-size: 30px;"">There was cheesecake for the party.</div>","<img src=""Images/cheesecakeslice.jpg""/>",experimental,n,993,573,true,list_1,342959,y,y
kddy6crg,234,64,"<div style=""font-size: 30px;"">There was a battery in the phone.</div>","<img src=""Images/screw.jpg""/>",filler,,1067,747,true,list_1,345543,n,n
kddy6crg,237,17,"<div style=""font-size: 30px;"">There was a walnut on the tree.</div>","<img src=""Images/walnutpiece.jpg""/>",experimental,n,894,874,true,list_1,348079,y,y
kddy6crg,240,94,"<div style=""font-size: 30px;"">There was chimney on the roof.</div>","<img src=""Images/fountain.jpg""/>",filler,,857,678,true,list_1,350384,n,n
kddy6crg,243,102,"<div style=""font-size: 30px;"">There was a cork in the bottle.</div>","<img src=""Images/clock.jpg""/>",filler,,940,739,true,list_1,352831,n,n
kddy6crg,246,38,"<div style=""font-size: 30px;"">There was carrot in the curry.</div>","<img src=""Images/carrotsliced.jpg""/>",experimental,y,1033,768,true,list_1,355391,y,y
kddy6crg,249,66,"<div style=""font-size: 30px;"">There was a pen in her satchel.</div>","<img src=""Images/dice.jpg""/>",filler,,1292,668,true,list_1,358119,n,n
kddy6crg,252,7,"<div style=""font-size: 30px;"">There was a lamp on the floor.</div>","<img src=""Images/lampfloor.jpg""/>",experimental,y,1464,1332,true,list_1,361679,y,y
kddy6crg,255,5,"<div style=""font-size: 30px;"">There was a tomato on the vine.</div>","<img src=""Images/tomato.jpg""/>",experimental,y,1124,781,true,list_1,364343,y,y
kddy6crg,258,15,"<div style=""font-size: 30px;"">There was an umbrella in her backpack.</div>","<img src=""Images/umbrellabag.jpg""/>",experimental,y,987,1305,true,list_1,367415,y,y
kddy6crg,261,74,"<div style=""font-size: 30px;"">There was a calculator on the desk.</div>","<img src=""Images/comb.jpg""/>",filler,,911,457,true,list_1,369550,n,n
kddy6crg,264,9,"<div style=""font-size: 30px;"">There was a squid in the water.</div>","<img src=""Images/squid.jpg""/>",experimental,y,1154,504,true,list_1,371974,y,y
kddy6crg,267,104,"<div style=""font-size: 30px;"">There was a deck in the boardgame.</div>","<img src=""Images/church.jpg""/>",filler,,874,559,true,list_1,374166,n,n
kddy6crg,270,19,"<div style=""font-size: 30px;"">There was a swiss knife in his pocket.</div>","<img src=""Images/swissknife.jpg""/>",experimental,n,1149,504,true,list_1,376582,y,y
kddy6crg,273,14,"<div style=""font-size: 30px;"">There was a zodiac in the ocean.</div>","<img src=""Images/zodiac.jpg""/>",experimental,y,1123,1572,false,list_1,380038,y,n
kddy6crg,276,103,"<div style=""font-size: 30px;"">There was a flower in the vase.</div>","<img src=""Images/squeegee.jpg""/>",filler,,1447,941,true,list_1,383198,n,n
kddy6crg,279,10,"<div style=""font-size: 30px;"">There was a mushroom in the forest.</div>","<img src=""Images/mushroom.jpg""/>",experimental,y,907,426,true,list_1,385302,y,y
kddy6crg,282,87,"<div style=""font-size: 30px;"">There was a blueberry in the cereal.</div>","<img src=""Images/cushion.jpg""/>",filler,,1204,666,true,list_1,387950,n,n
kddy6crg,285,106,"<div style=""font-size: 30px;"">There was a hippo in the zoo.</div>","<img src=""Images/crane.jpg""/>",filler,,828,514,true,list_1,390054,n,n
kddy6crg,288,49,"<div style=""font-size: 30px;"">There was apple in the salad.</div>","<img src=""Images/apple.jpg""/>",experimental,n,847,468,true,list_1,392126,y,y
kddy6crg,291,29,"<div style=""font-size: 30px;"">There was paint in the store.</div>","<img src=""Images/paintstroke.jpg""/>",experimental,n,920,863,true,list_1,394670,y,y
kddy6crg,294,58,"<div style=""font-size: 30px;"">There was watermelon in the bowl.</div>","<img src=""Images/watermelonwhole.jpg""/>",experimental,n,1023,507,true,list_1,396974,y,y
kddy6crg,297,77,"<div style=""font-size: 30px;"">There was a lipstick in the purse.</div>","<img src=""Images/castle.jpg""/>",filler,,1615,526,true,list_1,399886,n,n
kddy6crg,300,89,"<div style=""font-size: 30px;"">There was a snake in the grass.</div>","<img src=""Images/plunger.jpg""/>",filler,,1004,714,true,list_1,402374,n,n
kddy6crg,303,16,"<div style=""font-size: 30px;"">There was a shoelace in the package.</div>","<img src=""Images/shoelacetied.jpg""/>",experimental,n,965,414,true,list_1,404518,y,y
kddy6crg,306,46,"<div style=""font-size: 30px;"">There was a newspaper on the rack.</div>","<img src=""Images/newspaper.jpg""/>",experimental,n,893,436,true,list_1,406614,y,y
kddy6crg,309,88,"<div style=""font-size: 30px;"">There was a pot on the stove.</div>","<img src=""Images/rose.jpg""/>",filler,,908,505,true,list_1,408790,n,n
kddy6crg,312,42,"<div style=""font-size: 30px;"">There was cucumber in the salad.</div>","<img src=""Images/cucumbersliced.jpg""/>",experimental,y,1061,471,true,list_1,411102,y,y
kddy6crg,315,12,"<div style=""font-size: 30px;"">There was a shirt on the hanger.</div>","<img src=""Images/shirthanging.jpg""/>",experimental,y,778,1605,true,list_1,414246,y,y
kddy6crg,318,35,"<div style=""font-size: 30px;"">There was fish in the oven.</div>","<img src=""Images/fishoven.jpg""/>",experimental,y,1261,850,true,list_1,417126,y,y
kddy6crg,321,68,"<div style=""font-size: 30px;"">There was a tent in the shadow.</div>","<img src=""Images/peanut.jpg""/>",filler,,880,520,true,list_1,419302,n,n
kddy6crg,324,11,"<div style=""font-size: 30px;"">There was ice in the glass.</div>","<img src=""Images/ice.jpg""/>",experimental,y,871,503,true,list_1,421446,y,y
kddy6crg,327,23,"<div style=""font-size: 30px;"">There was a hockey player on the ice.</div>","<img src=""Images/hockeyplayerbench.jpg""/>",experimental,n,1266,1031,true,list_1,424510,y,y
kddy6crg,330,2,"<div style=""font-size: 30px;"">There was apple pie on the table.</div>","<img src=""Images/applepie.jpg""/>",experimental,y,822,548,true,list_1,426655,y,y
kddy6crg,333,109,"<div style=""font-size: 30px;"">There was a chessboard in the classroom.</div>","<img src=""Images/bridge.jpg""/>",filler,,1551,597,true,list_1,429566,n,n
kddy6crg,336,3,"<div style=""font-size: 30px;"">There was a towel on the floor.</div>","<img src=""Images/towelfloor.jpg""/>",experimental,y,1549,430,true,list_1,432318,y,y
kddy6crg,339,33,"<div style=""font-size: 30px;"">There was spaghetti in the bowl.</div>","<img src=""Images/spaghetticooked.jpg""/>",experimental,y,1063,537,true,list_1,434694,y,y
kddy6crg,342,116,"<div style=""font-size: 30px;"">There was a seal in the cove.</div>","<img src=""Images/brush.jpg""/>",filler,,1180,446,true,list_1,437094,n,n
kddy6crg,345,119,"<div style=""font-size: 30px;"">There was a guitar on the stage.</div>","<img src=""Images/candle.jpg""/>",filler,,1055,535,true,list_1,439454,n,n
kddy6crg,348,76,"<div style=""font-size: 30px;"">There was a kayak in the river.</div>","<img src=""Images/lamppost.jpg""/>",filler,,864,591,true,list_1,441678,n,n
kddy6crg,351,120,"<div style=""font-size: 30px;"">There was a cottage in the valley.</div>","<img src=""Images/candy.jpg""/>",filler,,1025,759,true,list_1,444222,n,n
kddy6crg,354,40,"<div style=""font-size: 30px;"">There was a goose in the sky.</div>","<img src=""Images/goose.jpg""/>",experimental,y,1177,566,true,list_1,446734,y,y
kddy6crg,357,53,"<div style=""font-size: 30px;"">There was onion in the batter.</div>","<img src=""Images/onion.jpg""/>",experimental,n,1162,587,true,list_1,449246,y,y
kddy6crg,360,71,"<div style=""font-size: 30px;"">There was a skateboard on the ground.</div>","<img src=""Images/bus.jpg""/>",filler,,1010,652,true,list_1,451678,n,n
kddy6crg,363,26,"<div style=""font-size: 30px;"">There was a garbage bag in the cupboard.</div>","<img src=""Images/garbagebagfull.jpg""/>",experimental,n,2158,966,true,list_1,455574,y,y
hx8ph3ed,6,72,"<div style=""font-size: 30px;"">There was a pencil in the cup.</div>","<img src=""Images/hairdryer.jpg""/>",filler,,8718,1950,true,list_1,37849,n,n
hx8ph3ed,9,78,"<div style=""font-size: 30px;"">There was fire on campus.</div>","<img src=""Images/papaya.jpg""/>",filler,,1193,1246,true,list_1,41060,n,n
hx8ph3ed,12,111,"<div style=""font-size: 30px;"">There was a blanket in the armchair.</div>","<img src=""Images/pan.jpg""/>",filler,,98,1002,true,list_1,42932,n,n
hx8ph3ed,15,88,"<div style=""font-size: 30px;"">There was a pot on the stove.</div>","<img src=""Images/rose.jpg""/>",filler,,1401,3330,true,list_1,48433,n,n
hx8ph3ed,18,115,"<div style=""font-size: 30px;"">There was a lounge in the garden.</div>","<img src=""Images/racquetballracket.jpg""/>",filler,,4129,1113,true,list_1,54442,n,n
hx8ph3ed,21,117,"<div style=""font-size: 30px;"">There was a pitcher in the bar.</div>","<img src=""Images/spraycan.jpg""/>",filler,,1659,812,true,list_1,57673,n,n
hx8ph3ed,24,86,"<div style=""font-size: 30px;"">There was a chair in the bedroom.</div>","<img src=""Images/cauliflower.jpg""/>",filler,,790,662,true,list_1,59889,n,n
hx8ph3ed,27,6,"<div style=""font-size: 30px;"">There was a book on the shelf.</div>","<img src=""Images/book.jpg""/>",experimental,y,1352,1615,true,list_1,63632,y,y
hx8ph3ed,30,59,"<div style=""font-size: 30px;"">There was an egg on the pan.</div>","<img src=""Images/egg.jpg""/>",experimental,n,668,1505,true,list_1,66567,y,y
hx8ph3ed,33,37,"<div style=""font-size: 30px;"">There was tinfoil in the garbage.</div>","<img src=""Images/foilcrcumpled.jpg""/>",experimental,y,1143,1246,true,list_1,69713,y,y
hx8ph3ed,36,102,"<div style=""font-size: 30px;"">There was a cork in the bottle.</div>","<img src=""Images/clock.jpg""/>",filler,,718,704,true,list_1,71894,n,n
hx8ph3ed,39,85,"<div style=""font-size: 30px;"">There was a cactus in the pot.</div>","<img src=""Images/closet.jpg""/>",filler,,482,677,true,list_1,73817,n,n
hx8ph3ed,42,101,"<div style=""font-size: 30px;"">There was salt on the table.</div>","<img src=""Images/shed.jpg""/>",filler,,665,731,true,list_1,75993,n,n
hx8ph3ed,45,52,"<div style=""font-size: 30px;"">There was a map on the wall.</div>","<img src=""Images/mapfolded.jpg""/>",experimental,n,499,975,true,list_1,78237,y,y
hx8ph3ed,48,118,"<div style=""font-size: 30px;"">There was a dart in his hand.</div>","<img src=""Images/cheesslice.jpg""/>",filler,,988,980,true,list_1,80962,n,n
hx8ph3ed,51,67,"<div style=""font-size: 30px;"">There was a hill in the village.</div>","<img src=""Images/scissors.jpg""/>",filler,,786,703,true,list_1,83227,n,n
hx8ph3ed,54,96,"<div style=""font-size: 30px;"">There was a bicycle in the driveway.</div>","<img src=""Images/acorn.jpg""/>",filler,,929,662,true,list_1,85587,n,n
hx8ph3ed,57,39,"<div style=""font-size: 30px;"">There was banana on the pancake.</div>","<img src=""Images/bananacut.jpg""/>",experimental,y,700,785,true,list_1,87846,y,y
hx8ph3ed,60,83,"<div style=""font-size: 30px;"">There was a thumbtack on the board.</div>","<img src=""Images/mango.jpg""/>",filler,,799,766,true,list_1,90187,n,n
hx8ph3ed,63,75,"<div style=""font-size: 30px;"">There was a statue in the park.</div>","<img src=""Images/button.jpg""/>",filler,,727,566,true,list_1,92244,n,n
hx8ph3ed,66,63,"<div style=""font-size: 30px;"">There was a tree on the trail.</div>","<img src=""Images/mussel.jpg""/>",filler,,612,608,true,list_1,94220,n,n
hx8ph3ed,69,93,"<div style=""font-size: 30px;"">There was a goat in the distance.</div>","<img src=""Images/dandelion.jpg""/>",filler,,524,612,true,list_1,96130,n,n
hx8ph3ed,72,84,"<div style=""font-size: 30px;"">There was a surfboard in the river.</div>","<img src=""Images/cookinggrill.jpg""/>",filler,,1153,596,true,list_1,98643,n,n
hx8ph3ed,75,9,"<div style=""font-size: 30px;"">There was a squid in the water.</div>","<img src=""Images/squid.jpg""/>",experimental,y,415,809,true,list_1,100638,y,y
hx8ph3ed,78,48,"<div style=""font-size: 30px;"">There was ketchup on the plate.</div>","<img src=""Images/ketchupbottle.jpg""/>",experimental,n,501,489,true,list_1,102388,y,y
hx8ph3ed,81,42,"<div style=""font-size: 30px;"">There was cucumber in the salad.</div>","<img src=""Images/cucumbersliced.jpg""/>",experimental,y,575,1098,true,list_1,104818,y,y
hx8ph3ed,84,36,"<div style=""font-size: 30px;"">There was an airplane in the sky.</div>","<img src=""Images/airplanesky.jpg""/>",experimental,y,478,379,true,list_1,106442,y,y
hx8ph3ed,87,110,"<div style=""font-size: 30px;"">There was a kettle in the kitchen.</div>","<img src=""Images/measuringtape.jpg""/>",filler,,510,924,true,list_1,108650,n,n
hx8ph3ed,90,25,"<div style=""font-size: 30px;"">There was a pumpkin on the cart.</div>","<img src=""Images/pumpkinface.jpg""/>",experimental,n,379,574,true,list_1,110365,y,y
hx8ph3ed,93,38,"<div style=""font-size: 30px;"">There was carrot in the curry.</div>","<img src=""Images/carrotsliced.jpg""/>",experimental,y,393,563,true,list_1,112099,y,y
hx8ph3ed,96,5,"<div style=""font-size: 30px;"">There was a tomato on the vine.</div>","<img src=""Images/tomato.jpg""/>",experimental,y,346,403,true,list_1,113619,y,y
hx8ph3ed,99,14,"<div style=""font-size: 30px;"">There was a zodiac in the ocean.</div>","<img src=""Images/zodiac.jpg""/>",experimental,y,309,661,false,list_1,115354,y,n
hx8ph3ed,102,82,"<div style=""font-size: 30px;"">There was an ornament on the skirt.</div>","<img src=""Images/eraser.jpg""/>",filler,,343,730,true,list_1,117194,n,n
hx8ph3ed,105,99,"<div style=""font-size: 30px;"">There was a plug by the door.</div>","<img src=""Images/bat.jpg""/>",filler,,376,561,true,list_1,118899,n,n
hx8ph3ed,108,79,"<div style=""font-size: 30px;"">There was a pepper in the pastry.</div>","<img src=""Images/padlock.jpg""/>",filler,,504,627,true,list_1,120789,n,n
hx8ph3ed,111,40,"<div style=""font-size: 30px;"">There was a goose in the sky.</div>","<img src=""Images/goose.jpg""/>",experimental,y,585,933,true,list_1,123083,y,y
hx8ph3ed,114,31,"<div style=""font-size: 30px;"">There was a balloon in the air.</div>","<img src=""Images/balloon.jpg""/>",experimental,y,757,364,true,list_1,124983,y,y
hx8ph3ed,117,100,"<div style=""font-size: 30px;"">There was a carriage on the highway.</div>","<img src=""Images/orange.jpg""/>",filler,,381,843,true,list_1,126987,n,n
hx8ph3ed,120,18,"<div style=""font-size: 30px;"">There was cheesecake for the party.</div>","<img src=""Images/cheesecakeslice.jpg""/>",experimental,n,542,401,true,list_1,128703,y,y
hx8ph3ed,123,120,"<div style=""font-size: 30px;"">There was a cottage in the valley.</div>","<img src=""Images/candy.jpg""/>",filler,,438,450,true,list_1,130352,n,n
hx8ph3ed,126,114,"<div style=""font-size: 30px;"">There was a skier in the mountain.</div>","<img src=""Images/mangocut.jpg""/>",filler,,382,425,true,list_1,131928,n,n
hx8ph3ed,129,45,"<div style=""font-size: 30px;"">There was sugar on the spoon.</div>","<img src=""Images/sugar.jpg""/>",experimental,y,370,560,true,list_1,133620,y,y
hx8ph3ed,132,61,"<div style=""font-size: 30px;"">There was a monkey on the beach.</div>","<img src=""Images/pawn.jpg""/>",filler,,299,474,true,list_1,135156,n,n
hx8ph3ed,135,56,"<div style=""font-size: 30px;"">There was soap in the bath.</div>","<img src=""Images/soapbar.jpg""/>",experimental,n,382,404,true,list_1,136719,y,y
hx8ph3ed,138,11,"<div style=""font-size: 30px;"">There was ice in the glass.</div>","<img src=""Images/ice.jpg""/>",experimental,y,304,489,true,list_1,138278,y,y
hx8ph3ed,141,15,"<div style=""font-size: 30px;"">There was an umbrella in her backpack.</div>","<img src=""Images/umbrellabag.jpg""/>",experimental,y,512,613,false,list_1,140163,y,n
hx8ph3ed,144,107,"<div style=""font-size: 30px;"">There was a mouse in the trap.</div>","<img src=""Images/wateringcan.jpg""/>",filler,,539,681,true,list_1,142149,n,n
hx8ph3ed,147,66,"<div style=""font-size: 30px;"">There was a pen in her satchel.</div>","<img src=""Images/dice.jpg""/>",filler,,632,479,true,list_1,144042,n,n
hx8ph3ed,150,27,"<div style=""font-size: 30px;"">There was an eagle in the nest.</div>","<img src=""Images/eaglesky.jpg""/>",experimental,n,455,532,true,list_1,145791,y,y
hx8ph3ed,153,44,"<div style=""font-size: 30px;"">There was a cigarette in the ashtray.</div>","<img src=""Images/cigarettebutt.jpg""/>",experimental,y,733,498,true,list_1,147784,y,y
hx8ph3ed,156,95,"<div style=""font-size: 30px;"">There was a mug on the coaster.</div>","<img src=""Images/grater.jpg""/>",filler,,372,557,true,list_1,149479,n,n
hx8ph3ed,159,2,"<div style=""font-size: 30px;"">There was apple pie on the table.</div>","<img src=""Images/applepie.jpg""/>",experimental,y,464,524,true,list_1,151233,y,y
hx8ph3ed,162,21,"<div style=""font-size: 30px;"">There was a lime in the produce section.</div>","<img src=""Images/limewedge.jpg""/>",experimental,n,538,487,false,list_1,153032,y,n
hx8ph3ed,165,16,"<div style=""font-size: 30px;"">There was a shoelace in the package.</div>","<img src=""Images/shoelacetied.jpg""/>",experimental,n,421,457,true,list_1,154666,y,y
hx8ph3ed,168,41,"<div style=""font-size: 30px;"">There was tape on the package.</div>","<img src=""Images/tape.jpg""/>",experimental,y,407,529,true,list_1,156368,y,y
hx8ph3ed,171,112,"<div style=""font-size: 30px;"">There was a mayonnaise in the sandwich.</div>","<img src=""Images/tweezers.jpg""/>",filler,,337,539,true,list_1,158008,n,n
hx8ph3ed,174,69,"<div style=""font-size: 30px;"">There was a bush in the meadow.</div>","<img src=""Images/hairpin.jpg""/>",filler,,525,550,true,list_1,159840,n,n
hx8ph3ed,177,57,"<div style=""font-size: 30px;"">There was chicken in the oven.</div>","<img src=""Images/chicken.jpg""/>",experimental,n,471,411,true,list_1,161493,y,y
hx8ph3ed,180,103,"<div style=""font-size: 30px;"">There was a flower in the vase.</div>","<img src=""Images/squeegee.jpg""/>",filler,,407,425,true,list_1,163094,n,n
hx8ph3ed,183,108,"<div style=""font-size: 30px;"">There was a cap on the head.</div>","<img src=""Images/car.jpg""/>",filler,,373,542,true,list_1,164763,n,n
hx8ph3ed,186,77,"<div style=""font-size: 30px;"">There was a lipstick in the purse.</div>","<img src=""Images/castle.jpg""/>",filler,,420,398,true,list_1,166343,n,n
hx8ph3ed,189,30,"<div style=""font-size: 30px;"">There was a tissue in the box.</div>","<img src=""Images/tissuecrumpled.jpg""/>",experimental,n,353,515,true,list_1,167986,y,y
hx8ph3ed,192,49,"<div style=""font-size: 30px;"">There was apple in the salad.</div>","<img src=""Images/apple.jpg""/>",experimental,n,390,662,true,list_1,169802,y,y
hx8ph3ed,195,76,"<div style=""font-size: 30px;"">There was a kayak in the river.</div>","<img src=""Images/lamppost.jpg""/>",filler,,406,430,true,list_1,171408,n,n
hx8ph3ed,198,54,"<div style=""font-size: 30px;"">There was wheat in the mill.</div>","<img src=""Images/wheat.jpg""/>",experimental,n,2076,930,true,list_1,175192,y,y
hx8ph3ed,201,64,"<div style=""font-size: 30px;"">There was a battery in the phone.</div>","<img src=""Images/screw.jpg""/>",filler,,520,853,true,list_1,177330,n,n
hx8ph3ed,204,65,"<div style=""font-size: 30px;"">There was a doll on the bench.</div>","<img src=""Images/crate.jpg""/>",filler,,376,483,true,list_1,178953,n,n
hx8ph3ed,207,7,"<div style=""font-size: 30px;"">There was a lamp on the floor.</div>","<img src=""Images/lampfloor.jpg""/>",experimental,y,634,689,true,list_1,181053,y,y
hx8ph3ed,210,109,"<div style=""font-size: 30px;"">There was a chessboard in the classroom.</div>","<img src=""Images/bridge.jpg""/>",filler,,453,643,true,list_1,182906,n,n
hx8ph3ed,213,73,"<div style=""font-size: 30px;"">There was a polar bear in the snow.</div>","<img src=""Images/truck.jpg""/>",filler,,725,567,true,list_1,184973,n,n
hx8ph3ed,216,51,"<div style=""font-size: 30px;"">There was wool in the sweater.</div>","<img src=""Images/woolball.jpg""/>",experimental,n,375,501,true,list_1,186620,y,y
hx8ph3ed,219,34,"<div style=""font-size: 30px;"">There was a coat on the floor.</div>","<img src=""Images/coatfloor.jpg""/>",experimental,y,378,758,true,list_1,188511,y,y
hx8ph3ed,222,113,"<div style=""font-size: 30px;"">There was a head on the neck.</div>","<img src=""Images/pinecone.jpg""/>",filler,,450,907,true,list_1,190642,n,n
hx8ph3ed,225,13,"<div style=""font-size: 30px;"">There was a staple in the machine.</div>","<img src=""Images/staplemachine.jpg""/>",experimental,y,531,587,true,list_1,192519,y,y
hx8ph3ed,228,3,"<div style=""font-size: 30px;"">There was a towel on the floor.</div>","<img src=""Images/towelfloor.jpg""/>",experimental,y,558,539,true,list_1,194373,y,y
hx8ph3ed,231,60,"<div style=""font-size: 30px;"">There was a frog in the pool.</div>","<img src=""Images/frogsit.jpg""/>",experimental,n,324,368,true,list_1,195834,y,y
hx8ph3ed,234,97,"<div style=""font-size: 30px;"">There was a pyramid by the museum.</div>","<img src=""Images/couch.jpg""/>",filler,,366,625,true,list_1,197604,n,n
hx8ph3ed,237,81,"<div style=""font-size: 30px;"">There was a mannequin in the shop.</div>","<img src=""Images/axe.jpg""/>",filler,,452,507,true,list_1,199325,n,n
hx8ph3ed,240,46,"<div style=""font-size: 30px;"">There was a newspaper on the rack.</div>","<img src=""Images/newspaper.jpg""/>",experimental,n,443,531,true,list_1,201063,y,y
hx8ph3ed,243,87,"<div style=""font-size: 30px;"">There was a blueberry in the cereal.</div>","<img src=""Images/cushion.jpg""/>",filler,,390,619,true,list_1,202830,n,n
hx8ph3ed,246,94,"<div style=""font-size: 30px;"">There was chimney on the roof.</div>","<img src=""Images/fountain.jpg""/>",filler,,440,452,true,list_1,204485,n,n
hx8ph3ed,249,28,"<div style=""font-size: 30px;"">There was an avocado in the pantry.</div>","<img src=""Images/avocadosliced.jpg""/>",experimental,n,664,903,true,list_1,206824,y,y
hx8ph3ed,252,19,"<div style=""font-size: 30px;"">There was a swiss knife in his pocket.</div>","<img src=""Images/swissknife.jpg""/>",experimental,n,471,945,true,list_1,209004,y,y
hx8ph3ed,255,58,"<div style=""font-size: 30px;"">There was watermelon in the bowl.</div>","<img src=""Images/watermelonwhole.jpg""/>",experimental,n,541,548,true,list_1,210865,y,y
hx8ph3ed,258,12,"<div style=""font-size: 30px;"">There was a shirt on the hanger.</div>","<img src=""Images/shirthanging.jpg""/>",experimental,y,198,373,true,list_1,212203,y,y
hx8ph3ed,261,80,"<div style=""font-size: 30px;"">There was a hammer in the basement.</div>","<img src=""Images/cow.jpg""/>",filler,,319,613,true,list_1,213900,n,n
hx8ph3ed,264,33,"<div style=""font-size: 30px;"">There was spaghetti in the bowl.</div>","<img src=""Images/spaghetticooked.jpg""/>",experimental,y,372,787,true,list_1,215828,y,y
hx8ph3ed,267,22,"<div style=""font-size: 30px;"">There was a hose on the wall.</div>","<img src=""Images/hoselawn.jpg""/>",experimental,n,930,886,true,list_1,218424,y,y
hx8ph3ed,270,29,"<div style=""font-size: 30px;"">There was paint in the store.</div>","<img src=""Images/paintstroke.jpg""/>",experimental,n,815,531,true,list_1,220541,y,y
hx8ph3ed,273,50,"<div style=""font-size: 30px;"">There was pineapple on the skewer.</div>","<img src=""Images/pineapple.jpg""/>",experimental,n,358,425,true,list_1,222083,y,y
hx8ph3ed,276,92,"<div style=""font-size: 30px;"">There was a wrench in the toolbox.</div>","<img src=""Images/tambourine.jpg""/>",filler,,372,538,true,list_1,223751,n,n
hx8ph3ed,279,8,"<div style=""font-size: 30px;"">There was a sailboat on the trailer.</div>","<img src=""Images/boatnosail.jpg""/>",experimental,y,292,469,true,list_1,225271,y,y
hx8ph3ed,282,71,"<div style=""font-size: 30px;"">There was a skateboard on the ground.</div>","<img src=""Images/bus.jpg""/>",filler,,348,632,true,list_1,227027,n,n
hx8ph3ed,285,90,"<div style=""font-size: 30px;"">There was raddish in the dish.</div>","<img src=""Images/qtip.jpg""/>",filler,,270,649,true,list_1,228726,n,n
hx8ph3ed,288,17,"<div style=""font-size: 30px;"">There was a walnut on the tree.</div>","<img src=""Images/walnutpiece.jpg""/>",experimental,n,394,625,true,list_1,230512,y,y
hx8ph3ed,291,24,"<div style=""font-size: 30px;"">There was a scarf on the rack.</div>","<img src=""Images/scarf.jpg""/>",experimental,n,391,442,true,list_1,232104,y,y
hx8ph3ed,294,47,"<div style=""font-size: 30px;"">There was a horse in the arena.</div>","<img src=""Images/horse.jpg""/>",experimental,n,403,569,true,list_1,233844,y,y
hx8ph3ed,297,68,"<div style=""font-size: 30px;"">There was a tent in the shadow.</div>","<img src=""Images/peanut.jpg""/>",filler,,461,624,true,list_1,235701,n,n
hx8ph3ed,300,104,"<div style=""font-size: 30px;"">There was a deck in the boardgame.</div>","<img src=""Images/church.jpg""/>",filler,,512,639,true,list_1,237619,n,n
hx8ph3ed,303,55,"<div style=""font-size: 30px;"">There was lemon in the drink.</div>","<img src=""Images/lemon.jpg""/>",experimental,n,298,500,true,list_1,239183,y,y
hx8ph3ed,306,23,"<div style=""font-size: 30px;"">There was a hockey player on the ice.</div>","<img src=""Images/hockeyplayerbench.jpg""/>",experimental,n,371,394,true,list_1,240703,y,y
hx8ph3ed,309,91,"<div style=""font-size: 30px;"">There was football in the stadium.</div>","<img src=""Images/apartment.jpg""/>",filler,,354,522,true,list_1,242352,n,n
hx8ph3ed,312,26,"<div style=""font-size: 30px;"">There was a garbage bag in the cupboard.</div>","<img src=""Images/garbagebagfull.jpg""/>",experimental,n,363,511,true,list_1,243999,y,y
hx8ph3ed,315,70,"<div style=""font-size: 30px;"">There was a yard by the kindergarten.</div>","<img src=""Images/penguin.jpg""/>",filler,,302,567,true,list_1,245641,n,n
hx8ph3ed,318,4,"<div style=""font-size: 30px;"">There was an owl in the barn.</div>","<img src=""Images/owlsit.jpg""/>",experimental,y,317,406,true,list_1,247144,y,y
hx8ph3ed,321,116,"<div style=""font-size: 30px;"">There was a seal in the cove.</div>","<img src=""Images/brush.jpg""/>",filler,,452,467,true,list_1,248819,n,n
hx8ph3ed,324,105,"<div style=""font-size: 30px;"">There was a whistle in the gym.</div>","<img src=""Images/safetypin.jpg""/>",filler,,274,954,true,list_1,250817,n,n
hx8ph3ed,327,10,"<div style=""font-size: 30px;"">There was a mushroom in the forest.</div>","<img src=""Images/mushroom.jpg""/>",experimental,y,631,627,true,list_1,252840,y,y
hx8ph3ed,330,62,"<div style=""font-size: 30px;"">There was a tiger in the steppe.</div>","<img src=""Images/elephant.jpg""/>",filler,,470,487,true,list_1,254560,n,n
hx8ph3ed,333,89,"<div style=""font-size: 30px;"">There was a snake in the grass.</div>","<img src=""Images/plunger.jpg""/>",filler,,408,384,true,list_1,256106,n,n
hx8ph3ed,336,106,"<div style=""font-size: 30px;"">There was a hippo in the zoo.</div>","<img src=""Images/crane.jpg""/>",filler,,234,470,true,list_1,257575,n,n
hx8ph3ed,339,32,"<div style=""font-size: 30px;"">There was a match in the ashtray.</div>","<img src=""Images/matchburned.jpg""/>",experimental,y,269,590,true,list_1,259202,y,y
hx8ph3ed,342,98,"<div style=""font-size: 30px;"">There was milk in the jar.</div>","<img src=""Images/strawberry.jpg""/>",filler,,230,646,true,list_1,260838,n,n
hx8ph3ed,345,43,"<div style=""font-size: 30px;"">There was bread in the toaster.</div>","<img src=""Images/breadtoast.jpg""/>",experimental,y,496,397,true,list_1,262493,y,y
hx8ph3ed,348,35,"<div style=""font-size: 30px;"">There was fish in the oven.</div>","<img src=""Images/fishoven.jpg""/>",experimental,y,293,483,false,list_1,264041,y,n
hx8ph3ed,351,74,"<div style=""font-size: 30px;"">There was a calculator on the desk.</div>","<img src=""Images/comb.jpg""/>",filler,,656,485,true,list_1,265948,n,n
hx8ph3ed,354,119,"<div style=""font-size: 30px;"">There was a guitar on the stage.</div>","<img src=""Images/candle.jpg""/>",filler,,480,767,true,list_1,267961,n,n
hx8ph3ed,357,1,"<div style=""font-size: 30px;"">There was corn in the field.</div>","<img src=""Images/corn.jpg""/>",experimental,y,612,420,true,list_1,269747,y,y
hx8ph3ed,360,53,"<div style=""font-size: 30px;"">There was onion in the batter.</div>","<img src=""Images/onion.jpg""/>",experimental,n,528,515,true,list_1,271553,y,y
hx8ph3ed,363,20,"<div style=""font-size: 30px;"">There was a lobster in the sea.</div>","<img src=""Images/lobstermeat.jpg""/>",experimental,n,569,780,true,list_1,273663,y,y
hnvp0qk0,6,16,"<div style=""font-size: 30px;"">There was a shoelace in the package.</div>","<img src=""Images/shoelace.jpg""/>",experimental,y,3792,2134,false,list_4,36234,y,n
hnvp0qk0,9,50,"<div style=""font-size: 30px;"">There was pineapple on the plant.</div>","<img src=""Images/pineapple.jpg""/>",experimental,y,1145,3837,true,list_4,41990,y,y
hnvp0qk0,12,54,"<div style=""font-size: 30px;"">There was wheat in the field.</div>","<img src=""Images/wheat.jpg""/>",experimental,y,845,2474,true,list_4,46072,y,y
hnvp0qk0,15,63,"<div style=""font-size: 30px;"">There was a tree on the trail.</div>","<img src=""Images/mussel.jpg""/>",filler,,886,798,true,list_4,48521,n,n
hnvp0qk0,18,92,"<div style=""font-size: 30px;"">There was a wrench in the toolbox.</div>","<img src=""Images/tambourine.jpg""/>",filler,,533,994,true,list_4,50814,n,n
hnvp0qk0,21,29,"<div style=""font-size: 30px;"">There was paint in the store.</div>","<img src=""Images/paintcan.jpg""/>",experimental,y,1266,1850,true,list_4,54698,y,y
hnvp0qk0,24,77,"<div style=""font-size: 30px;"">There was a lipstick in the purse.</div>","<img src=""Images/castle.jpg""/>",filler,,1122,687,true,list_4,57275,n,n
hnvp0qk0,27,76,"<div style=""font-size: 30px;"">There was a kayak in the river.</div>","<img src=""Images/lamppost.jpg""/>",filler,,3138,660,true,list_4,61836,n,n
hnvp0qk0,30,120,"<div style=""font-size: 30px;"">There was a cottage in the valley.</div>","<img src=""Images/candy.jpg""/>",filler,,2355,549,true,list_4,65504,n,n
hnvp0qk0,33,56,"<div style=""font-size: 30px;"">There was soap in the dish.</div>","<img src=""Images/soapbar.jpg""/>",experimental,y,1859,1065,true,list_4,69187,y,y
hnvp0qk0,36,15,"<div style=""font-size: 30px;"">There was an umbrella in her hand.</div>","<img src=""Images/umbrellabag.jpg""/>",experimental,n,133,906,true,list_4,70987,y,y
hnvp0qk0,39,6,"<div style=""font-size: 30px;"">There was a book on the photocopier.</div>","<img src=""Images/book.jpg""/>",experimental,n,838,2237,true,list_4,74837,y,y
hnvp0qk0,42,24,"<div style=""font-size: 30px;"">There was a scarf on the rack.</div>","<img src=""Images/scarfhanging.jpg""/>",experimental,y,1196,631,true,list_4,77422,y,y
hnvp0qk0,45,80,"<div style=""font-size: 30px;"">There was a hammer in the basement.</div>","<img src=""Images/cow.jpg""/>",filler,,1164,531,true,list_4,79897,n,n
hnvp0qk0,48,64,"<div style=""font-size: 30px;"">There was a battery in the phone.</div>","<img src=""Images/screw.jpg""/>",filler,,1437,731,true,list_4,82829,n,n
hnvp0qk0,51,68,"<div style=""font-size: 30px;"">There was a tent in the shadow.</div>","<img src=""Images/peanut.jpg""/>",filler,,1374,599,true,list_4,85574,n,n
hnvp0qk0,54,59,"<div style=""font-size: 30px;"">There was an egg in the refrigerator.</div>","<img src=""Images/egg.jpg""/>",experimental,y,626,415,true,list_4,87386,y,y
hnvp0qk0,57,39,"<div style=""font-size: 30px;"">There was a banana on the counter.</div>","<img src=""Images/bananacut.jpg""/>",experimental,n,1016,701,true,list_4,89861,y,y
hnvp0qk0,60,87,"<div style=""font-size: 30px;"">There was a blueberry in the cereal.</div>","<img src=""Images/cushion.jpg""/>",filler,,661,551,true,list_4,91837,n,n
hnvp0qk0,63,102,"<div style=""font-size: 30px;"">There was a cork in the bottle.</div>","<img src=""Images/clock.jpg""/>",filler,,741,864,true,list_4,94197,n,n
hnvp0qk0,66,94,"<div style=""font-size: 30px;"">There was chimney on the roof.</div>","<img src=""Images/fountain.jpg""/>",filler,,663,708,true,list_4,96334,n,n
hnvp0qk0,69,84,"<div style=""font-size: 30px;"">There was a surfboard in the river.</div>","<img src=""Images/cookinggrill.jpg""/>",filler,,1580,603,true,list_4,99280,n,n
hnvp0qk0,72,47,"<div style=""font-size: 30px;"">There was a horse in the arena.</div>","<img src=""Images/horserunning.jpg""/>",experimental,y,500,650,true,list_4,101199,y,y
hnvp0qk0,75,26,"<div style=""font-size: 30px;"">There was a garbage bag in the cupboard.</div>","<img src=""Images/garbagebagempty.jpg""/>",experimental,y,2453,781,true,list_4,105198,y,y
hnvp0qk0,78,10,"<div style=""font-size: 30px;"">There was mushroom in the soup.</div>","<img src=""Images/mushroom.jpg""/>",experimental,n,1053,628,true,list_4,107661,y,y
hnvp0qk0,81,43,"<div style=""font-size: 30px;"">There was bread in the bakery window.</div>","<img src=""Images/breadtoast.jpg""/>",experimental,n,708,591,true,list_4,109716,y,y
hnvp0qk0,84,99,"<div style=""font-size: 30px;"">There was a plug by the door.</div>","<img src=""Images/bat.jpg""/>",filler,,635,664,true,list_4,111778,n,n
hnvp0qk0,87,3,"<div style=""font-size: 30px;"">There was a towel on the rack.</div>","<img src=""Images/towelfloor.jpg""/>",experimental,n,933,989,true,list_4,114464,y,y
hnvp0qk0,90,57,"<div style=""font-size: 30px;"">There was chicken in the coop.</div>","<img src=""Images/chicken.jpg""/>",experimental,y,1263,500,true,list_4,116991,y,y
hnvp0qk0,93,74,"<div style=""font-size: 30px;"">There was a calculator on the desk.</div>","<img src=""Images/comb.jpg""/>",filler,,753,1168,true,list_4,119673,n,n
hnvp0qk0,96,97,"<div style=""font-size: 30px;"">There was a pyramid by the museum.</div>","<img src=""Images/couch.jpg""/>",filler,,2043,539,true,list_4,123020,n,n
hnvp0qk0,99,34,"<div style=""font-size: 30px;"">There was a coat on the rack.</div>","<img src=""Images/coatfloor.jpg""/>",experimental,n,1663,472,true,list_4,125916,y,y
hnvp0qk0,102,49,"<div style=""font-size: 30px;"">There was apple in the salad.</div>","<img src=""Images/applewedges.jpg""/>",experimental,y,1087,597,true,list_4,128366,y,y
hnvp0qk0,105,85,"<div style=""font-size: 30px;"">There was a cactus in the pot.</div>","<img src=""Images/closet.jpg""/>",filler,,1544,413,true,list_4,131088,n,n
hnvp0qk0,108,2,"<div style=""font-size: 30px;"">There was apple pie on the plate.</div>","<img src=""Images/applepie.jpg""/>",experimental,n,1074,696,true,list_4,133618,y,y
hnvp0qk0,111,107,"<div style=""font-size: 30px;"">There was a mouse in the trap.</div>","<img src=""Images/wateringcan.jpg""/>",filler,,3162,495,true,list_4,138042,n,n
hnvp0qk0,114,30,"<div style=""font-size: 30px;"">There was a tissue in the box.</div>","<img src=""Images/tissue.jpg""/>",experimental,y,1134,1831,true,list_4,141773,y,y
hnvp0qk0,117,53,"<div style=""font-size: 30px;"">There was onion in the basket.</div>","<img src=""Images/onion.jpg""/>",experimental,y,1550,655,true,list_4,144747,y,y
hnvp0qk0,120,25,"<div style=""font-size: 30px;"">There was a pumpkin on the cart.</div>","<img src=""Images/pumpkin.jpg""/>",experimental,y,835,437,true,list_4,146780,y,y
hnvp0qk0,123,55,"<div style=""font-size: 30px;"">There was a lemon in the tree.</div>","<img src=""Images/lemon.jpg""/>",experimental,y,1261,385,true,list_4,149186,y,y
hnvp0qk0,126,72,"<div style=""font-size: 30px;"">There was a pencil in the cup.</div>","<img src=""Images/hairdryer.jpg""/>",filler,,544,622,true,list_4,151128,n,n
hnvp0qk0,129,78,"<div style=""font-size: 30px;"">There was fire on campus.</div>","<img src=""Images/papaya.jpg""/>",filler,,646,1322,true,list_4,153856,n,n
hnvp0qk0,132,119,"<div style=""font-size: 30px;"">There was a guitar on the stage.</div>","<img src=""Images/candle.jpg""/>",filler,,999,1086,true,list_4,156712,n,n
hnvp0qk0,135,28,"<div style=""font-size: 30px;"">There was an avocado in the pantry.</div>","<img src=""Images/avocado.jpg""/>",experimental,y,1008,303,true,list_4,158792,y,y
hnvp0qk0,138,12,"<div style=""font-size: 30px;"">There was a shirt on the shelf.</div>","<img src=""Images/shirthanging.jpg""/>",experimental,n,500,378,true,list_4,160444,y,y
hnvp0qk0,141,44,"<div style=""font-size: 30px;"">There was a cigarette in the box.</div>","<img src=""Images/cigarettebutt.jpg""/>",experimental,n,578,390,true,list_4,162176,y,y
hnvp0qk0,144,82,"<div style=""font-size: 30px;"">There was an ornament on the skirt.</div>","<img src=""Images/eraser.jpg""/>",filler,,571,856,true,list_4,164367,n,n
hnvp0qk0,147,91,"<div style=""font-size: 30px;"">There was football in the stadium.</div>","<img src=""Images/apartment.jpg""/>",filler,,703,825,true,list_4,166667,n,n
hnvp0qk0,150,9,"<div style=""font-size: 30px;"">There was squid in the pasta.</div>","<img src=""Images/squid.jpg""/>",experimental,n,1269,704,true,list_4,169402,y,y
hnvp0qk0,153,90,"<div style=""font-size: 30px;"">There was raddish in the dish.</div>","<img src=""Images/qtip.jpg""/>",filler,,950,571,true,list_4,171686,n,n
hnvp0qk0,156,83,"<div style=""font-size: 30px;"">There was a thumbtack on the board.</div>","<img src=""Images/mango.jpg""/>",filler,,889,829,true,list_4,174178,n,n
hnvp0qk0,159,52,"<div style=""font-size: 30px;"">There was a map in the glove compartment.</div>","<img src=""Images/mapfolded.jpg""/>",experimental,y,1354,484,true,list_4,176780,y,y
hnvp0qk0,162,106,"<div style=""font-size: 30px;"">There was a hippo in the zoo.</div>","<img src=""Images/crane.jpg""/>",filler,,1338,506,true,list_4,179392,n,n
hnvp0qk0,165,7,"<div style=""font-size: 30px;"">There was a lamp on the table.</div>","<img src=""Images/lampfloor.jpg""/>",experimental,n,1113,1010,true,list_4,182283,y,y
hnvp0qk0,168,86,"<div style=""font-size: 30px;"">There was a chair in the bedroom.</div>","<img src=""Images/cauliflower.jpg""/>",filler,,1628,1516,true,list_4,186190,n,n
hnvp0qk0,171,40,"<div style=""font-size: 30px;"">There was a goose in the field.</div>","<img src=""Images/goose.jpg""/>",experimental,n,1361,776,true,list_4,189100,y,y
hnvp0qk0,174,8,"<div style=""font-size: 30px;"">There was a sailboat on the lake.</div>","<img src=""Images/boatnosail.jpg""/>",experimental,n,1580,436,true,list_4,191886,y,y
hnvp0qk0,177,51,"<div style=""font-size: 30px;"">There was wool in the basket.</div>","<img src=""Images/woolball.jpg""/>",experimental,y,2014,1204,true,list_4,195858,y,y
hnvp0qk0,180,23,"<div style=""font-size: 30px;"">There was a hockey player on the ice.</div>","<img src=""Images/hockeyice.jpg""/>",experimental,y,3282,954,true,list_4,200852,y,y
hnvp0qk0,183,71,"<div style=""font-size: 30px;"">There was a skateboard on the ground.</div>","<img src=""Images/bus.jpg""/>",filler,,3946,565,true,list_4,206130,n,n
hnvp0qk0,186,11,"<div style=""font-size: 30px;"">There was ice in the gutter.</div>","<img src=""Images/ice.jpg""/>",experimental,n,1660,429,true,list_4,208988,y,y
hnvp0qk0,189,104,"<div style=""font-size: 30px;"">There was a deck in the boardgame.</div>","<img src=""Images/church.jpg""/>",filler,,2131,581,true,list_4,212481,n,n
hnvp0qk0,192,75,"<div style=""font-size: 30px;"">There was a statue in the park.</div>","<img src=""Images/button.jpg""/>",filler,,1212,997,true,list_4,215451,n,n
hnvp0qk0,195,113,"<div style=""font-size: 30px;"">There was a head on the neck.</div>","<img src=""Images/pinecone.jpg""/>",filler,,1725,671,true,list_4,218619,n,n
hnvp0qk0,198,111,"<div style=""font-size: 30px;"">There was a blanket in the armchair.</div>","<img src=""Images/pan.jpg""/>",filler,,1040,587,true,list_4,221023,n,n
hnvp0qk0,201,33,"<div style=""font-size: 30px;"">There was spaghetti in the box.</div>","<img src=""Images/spaghetticooked.jpg""/>",experimental,n,567,649,true,list_4,223012,y,y
hnvp0qk0,204,17,"<div style=""font-size: 30px;"">There was a walnut on the tree.</div>","<img src=""Images/walnut.jpg""/>",experimental,y,1742,459,true,list_4,225984,y,y
hnvp0qk0,207,95,"<div style=""font-size: 30px;"">There was a mug on the coaster.</div>","<img src=""Images/grater.jpg""/>",filler,,1061,573,true,list_4,228394,n,n
hnvp0qk0,210,100,"<div style=""font-size: 30px;"">There was a carriage on the highway.</div>","<img src=""Images/orange.jpg""/>",filler,,892,599,true,list_4,230652,n,n
hnvp0qk0,213,60,"<div style=""font-size: 30px;"">There was a frog in the field.</div>","<img src=""Images/frogsit.jpg""/>",experimental,y,848,593,true,list_4,232854,y,y
hnvp0qk0,216,109,"<div style=""font-size: 30px;"">There was a chessboard in the classroom.</div>","<img src=""Images/bridge.jpg""/>",filler,,1755,552,true,list_4,235928,n,n
hnvp0qk0,219,32,"<div style=""font-size: 30px;"">There was a match in the box.</div>","<img src=""Images/matchburned.jpg""/>",experimental,n,1016,871,true,list_4,238581,y,y
hnvp0qk0,222,79,"<div style=""font-size: 30px;"">There was a pepper in the pastry.</div>","<img src=""Images/padlock.jpg""/>",filler,,1361,556,true,list_4,241267,n,n
hnvp0qk0,225,20,"<div style=""font-size: 30px;"">There was a lobster in the sea.</div>","<img src=""Images/lobster.jpg""/>",experimental,y,801,458,true,list_4,243284,y,y
hnvp0qk0,228,115,"<div style=""font-size: 30px;"">There was a lounge in the garden.</div>","<img src=""Images/racquetballracket.jpg""/>",filler,,2089,626,true,list_4,246760,n,n
hnvp0qk0,231,89,"<div style=""font-size: 30px;"">There was a snake in the grass.</div>","<img src=""Images/plunger.jpg""/>",filler,,1372,508,true,list_4,249403,n,n
hnvp0qk0,234,36,"<div style=""font-size: 30px;"">There was an airplane in the hangar.</div>","<img src=""Images/airplanesky.jpg""/>",experimental,n,1068,380,true,list_4,251622,y,y
hnvp0qk0,237,58,"<div style=""font-size: 30px;"">There was watermelon in the garden.</div>","<img src=""Images/watermelonwhole.jpg""/>",experimental,y,1833,551,true,list_4,254764,y,y
hnvp0qk0,240,65,"<div style=""font-size: 30px;"">There was a doll on the bench.</div>","<img src=""Images/crate.jpg""/>",filler,,780,539,true,list_4,256849,n,n
hnvp0qk0,243,112,"<div style=""font-size: 30px;"">There was a mayonnaise in the sandwich.</div>","<img src=""Images/tweezers.jpg""/>",filler,,1070,584,true,list_4,259266,n,n
hnvp0qk0,246,98,"<div style=""font-size: 30px;"">There was milk in the jar.</div>","<img src=""Images/strawberry.jpg""/>",filler,,976,505,true,list_4,261512,n,n
hnvp0qk0,249,88,"<div style=""font-size: 30px;"">There was a pot on the stove.</div>","<img src=""Images/rose.jpg""/>",filler,,1154,540,true,list_4,263980,n,n
hnvp0qk0,252,73,"<div style=""font-size: 30px;"">There was a polar bear in the snow.</div>","<img src=""Images/truck.jpg""/>",filler,,780,605,true,list_4,266134,n,n
hnvp0qk0,255,14,"<div style=""font-size: 30px;"">There was a zodiac in the garage.</div>","<img src=""Images/zodiac.jpg""/>",experimental,n,1309,1500,false,list_4,269715,y,n
hnvp0qk0,258,105,"<div style=""font-size: 30px;"">There was a whistle in the gym.</div>","<img src=""Images/safetypin.jpg""/>",filler,,1997,1006,true,list_4,273481,n,n
hnvp0qk0,261,46,"<div style=""font-size: 30px;"">There was a newspaper on the rack.</div>","<img src=""Images/newspaperrack.jpg""/>",experimental,y,2962,465,true,list_4,277676,y,y
hnvp0qk0,264,70,"<div style=""font-size: 30px;"">There was a yard by the kindergarten.</div>","<img src=""Images/penguin.jpg""/>",filler,,1948,499,true,list_4,280894,n,n
hnvp0qk0,267,67,"<div style=""font-size: 30px;"">There was a hill in the village.</div>","<img src=""Images/scissors.jpg""/>",filler,,1078,743,true,list_4,283474,n,n
hnvp0qk0,270,4,"<div style=""font-size: 30px;"">There was an owl in the sky.</div>","<img src=""Images/owlsit.jpg""/>",experimental,n,1458,406,true,list_4,286106,y,y
hnvp0qk0,273,93,"<div style=""font-size: 30px;"">There was a goat in the distance.</div>","<img src=""Images/dandelion.jpg""/>",filler,,1232,671,true,list_4,288780,n,n
hnvp0qk0,276,31,"<div style=""font-size: 30px;"">There was a balloon in the pack.</div>","<img src=""Images/balloon.jpg""/>",experimental,n,687,748,true,list_4,290985,y,y
hnvp0qk0,279,21,"<div style=""font-size: 30px;"">There was a lime in the produce section.</div>","<img src=""Images/lime.jpg""/>",experimental,y,987,968,true,list_4,293698,y,y
hnvp0qk0,282,114,"<div style=""font-size: 30px;"">There was a skier in the mountain.</div>","<img src=""Images/mangocut.jpg""/>",filler,,1357,842,true,list_4,296658,n,n
hnvp0qk0,285,41,"<div style=""font-size: 30px;"">There was tape on the shelf.</div>","<img src=""Images/tape.jpg""/>",experimental,n,1058,1653,true,list_4,300142,y,y
hnvp0qk0,288,117,"<div style=""font-size: 30px;"">There was a pitcher in the bar.</div>","<img src=""Images/spraycan.jpg""/>",filler,,2657,1359,true,list_4,304920,n,n
hnvp0qk0,291,22,"<div style=""font-size: 30px;"">There was a hose on the wall.</div>","<img src=""Images/hosewall.jpg""/>",experimental,y,1163,1346,true,list_4,308190,y,y
hnvp0qk0,294,69,"<div style=""font-size: 30px;"">There was a bush in the meadow.</div>","<img src=""Images/hairpin.jpg""/>",filler,,2626,498,true,list_4,312076,n,n
hnvp0qk0,297,45,"<div style=""font-size: 30px;"">There was sugar on the table.</div>","<img src=""Images/sugar.jpg""/>",experimental,n,730,1009,true,list_4,314595,y,y
hnvp0qk0,300,19,"<div style=""font-size: 30px;"">There was a swiss knife in his pocket.</div>","<img src=""Images/swissknifeclosed.jpg""/>",experimental,y,1521,1001,true,list_4,317886,y,y
hnvp0qk0,303,62,"<div style=""font-size: 30px;"">There was a tiger in the steppe.</div>","<img src=""Images/elephant.jpg""/>",filler,,1415,700,true,list_4,320761,n,n
hnvp0qk0,306,48,"<div style=""font-size: 30px;"">There was ketchup on the plate.</div>","<img src=""Images/ketchup.jpg""/>",experimental,y,1990,744,true,list_4,324266,y,y
hnvp0qk0,309,96,"<div style=""font-size: 30px;"">There was a bicycle in the driveway.</div>","<img src=""Images/acorn.jpg""/>",filler,,1561,421,true,list_4,327008,n,n
hnvp0qk0,312,18,"<div style=""font-size: 30px;"">There was cheesecake for the party.</div>","<img src=""Images/cheesecake.jpg""/>",experimental,y,1108,565,true,list_4,329450,y,y
hnvp0qk0,315,110,"<div style=""font-size: 30px;"">There was a kettle in the kitchen.</div>","<img src=""Images/measuringtape.jpg""/>",filler,,1704,716,true,list_4,332626,n,n
hnvp0qk0,318,37,"<div style=""font-size: 30px;"">There was tinfoil in the drawer.</div>","<img src=""Images/foilcrcumpled.jpg""/>",experimental,n,2162,470,true,list_4,336018,y,y
hnvp0qk0,321,81,"<div style=""font-size: 30px;"">There was a mannequin in the shop.</div>","<img src=""Images/axe.jpg""/>",filler,,2271,525,true,list_4,339581,n,n
hnvp0qk0,324,66,"<div style=""font-size: 30px;"">There was a pen in her satchel.</div>","<img src=""Images/dice.jpg""/>",filler,,1906,731,true,list_4,342990,n,n
hnvp0qk0,327,35,"<div style=""font-size: 30px;"">There was a fish in the pond.</div>","<img src=""Images/fishoven.jpg""/>",experimental,n,1235,733,true,list_4,345733,y,y
hnvp0qk0,330,1,"<div style=""font-size: 30px;"">There was corn in the cooking pot.</div>","<img src=""Images/corn.jpg""/>",experimental,n,1778,838,true,list_4,349113,y,y
hnvp0qk0,333,5,"<div style=""font-size: 30px;"">There was tomato on the pizza.</div>","<img src=""Images/tomato.jpg""/>",experimental,n,1064,701,false,list_4,351655,y,n
hnvp0qk0,336,101,"<div style=""font-size: 30px;"">There was salt on the table.</div>","<img src=""Images/shed.jpg""/>",filler,,4182,619,true,list_4,357217,n,n
